Polar coordinates (r,theta) as a function of time (origin in the center of the hemisphere)

Angular position
   theta1_[deg]   ..........   theta59_[deg]
              0.00000    2.30770    4.61537    6.92308    9.23076   11.53846   13.84615   16.15385   18.46154   20.76922   23.07693   25.38459   27.69235   29.99999   32.30761   34.61535   36.92316   39.23071   41.53852   43.84614   46.15391   48.46158   50.76920   53.07696   55.38465   57.69245   59.99996   62.30765   64.61545   66.92302   69.23081   71.53845   73.84626   76.15380   78.46165   80.76921   83.07696   85.38453   87.69242   90.00000   91.80880   93.61377   95.41182   97.19925   98.97270  100.72877  102.46490  104.17809  105.86579  107.52549  109.15559  110.75410  112.31952  113.85041  115.34617  116.80583  118.22886  119.61477  120.96376

Radius as a function of time for the above positions
  time_[s]       r1_[mm]   ..........      r59_[mm]
   0.00000   25.00000   25.00000   25.00000   25.00000   25.00000   25.00000   25.00000   25.00000   25.00000   25.00000   25.00000   25.00000   25.00000   25.00000   25.00000   25.00000   25.00000   25.00000   25.00000   25.00000   25.00000   25.00000   25.00000   25.00000   25.00000   25.00000   25.00000   25.00000   25.00000   25.00000   25.00000   25.00000   25.00000   25.00000   25.00000   25.00000   25.00000   25.00000   25.00000   25.00000   25.01246   25.04981   25.11194   25.19866   25.30972   25.44479   25.60352   25.78545   25.99010   26.21691   26.46536   26.73483   27.02468   27.33423   27.66289   28.00995   28.37474   28.75654   29.15476
   0.10000   24.99521   24.99522   24.99526   24.99533   24.99543   24.99556   24.99571   24.99588   24.99607   24.99628   24.99652   24.99677   24.99704   24.99732   24.99762   24.99793   24.99825   24.99856   24.99887   24.99921   24.99953   24.99982   25.00000   25.00000   25.00000   25.00000   25.00000   25.00000   25.00000   25.00000   25.00000   25.00000   25.00000   25.00000   25.00000   25.00000   25.00000   25.00000   25.00000   25.00000   25.01246   25.04981   25.11194   25.19866   25.30972   25.44479   25.60352   25.78545   25.99010   26.21691   26.46536   26.73483   27.02468   27.33423   27.66289   28.00995   28.37474   28.75653   29.15476
   0.20000   24.99043   24.99045   24.99054   24.99068   24.99088   24.99113   24.99143   24.99177   24.99215   24.99257   24.99305   24.99355   24.99409   24.99464   24.99523   24.99586   24.99649   24.99712   24.99773   24.99840   24.99904   24.99963   25.00000   25.00000   25.00000   25.00000   25.00000   25.00000   25.00000   25.00000   25.00000   25.00000   25.00000   25.00000   25.00000   25.00000   25.00000   25.00000   25.00000   25.00000   25.01246   25.04981   25.11194   25.19866   25.30972   25.44479   25.60352   25.78545   25.99010   26.21691   26.46536   26.73483   27.02468   27.33423   27.66289   28.00995   28.37474   28.75653   29.15476
   0.30000   24.98567   24.98570   24.98583   24.98604   24.98634   24.98672   24.98716   24.98767   24.98824   24.98887   24.98958   24.99033   24.99114   24.99196   24.99284   24.99378   24.99472   24.99566   24.99658   24.99757   24.99854   24.99941   25.00000   25.00000   25.00000   25.00000   25.00000   25.00000   25.00000   25.00000   25.00000   25.00000   25.00000   25.00000   25.00000   25.00000   25.00000   25.00000   25.00000   25.00000   25.01246   25.04981   25.11194   25.19866   25.30972   25.44479   25.60352   25.78545   25.99010   26.21691   26.46536   26.73482   27.02468   27.33422   27.66288   28.00995   28.37474   28.75653   29.15475
   0.40000   24.98093   24.98097   24.98115   24.98142   24.98181   24.98232   24.98291   24.98359   24.98434   24.98518   24.98612   24.98711   24.98818   24.98928   24.99044   24.99169   24.99294   24.99419   24.99541   24.99673   24.99801   24.99917   25.00000   25.00000   25.00000   25.00000   25.00000   25.00000   25.00000   25.00000   25.00000   25.00000   25.00000   25.00000   25.00000   25.00000   25.00000   25.00000   25.00000   25.00000   25.01246   25.04981   25.11194   25.19866   25.30972   25.44479   25.60352   25.78545   25.99010   26.21691   26.46536   26.73482   27.02467   27.33422   27.66288   28.00994   28.37473   28.75652   29.15475
   0.50000   24.97621   24.97626   24.97648   24.97682   24.97731   24.97794   24.97867   24.97951   24.98046   24.98150   24.98267   24.98390   24.98523   24.98660   24.98804   24.98960   24.99115   24.99271   24.99423   24.99587   24.99747   24.99891   25.00000   25.00000   25.00000   25.00000   25.00000   25.00000   25.00000   25.00000   25.00000   25.00000   25.00000   25.00000   25.00000   25.00000   25.00000   25.00000   25.00000   25.00000   25.01246   25.04981   25.11194   25.19866   25.30972   25.44479   25.60352   25.78545   25.99010   26.21690   26.46536   26.73482   27.02467   27.33422   27.66288   28.00994   28.37473   28.75652   29.15474
   0.60000   24.97150   24.97157   24.97182   24.97223   24.97282   24.97357   24.97444   24.97545   24.97658   24.97782   24.97922   24.98069   24.98229   24.98392   24.98564   24.98751   24.98936   24.99122   24.99304   24.99500   24.99690   24.99863   25.00000   25.00000   25.00000   25.00000   25.00000   25.00000   25.00000   25.00000   25.00000   25.00000   25.00000   25.00000   25.00000   25.00000   25.00000   25.00000   25.00000   25.00000   25.01246   25.04981   25.11194   25.19866   25.30972   25.44479   25.60352   25.78545   25.99010   26.21690   26.46535   26.73482   27.02467   27.33421   27.66287   28.00993   28.37472   28.75651   29.15473
   0.70000   24.96681   24.96689   24.96719   24.96766   24.96834   24.96922   24.97023   24.97140   24.97271   24.97415   24.97578   24.97748   24.97934   24.98123   24.98324   24.98540   24.98755   24.98971   24.99183   24.99410   24.99632   24.99832   25.00000   25.00000   25.00000   25.00000   25.00000   25.00000   25.00000   25.00000   25.00000   25.00000   25.00000   25.00000   25.00000   25.00000   25.00000   25.00000   25.00000   25.00000   25.01246   25.04981   25.11194   25.19866   25.30972   25.44479   25.60352   25.78545   25.99010   26.21690   26.46535   26.73481   27.02466   27.33421   27.66286   28.00992   28.37471   28.75650   29.15472
   0.80000   24.96214   24.96223   24.96257   24.96311   24.96388   24.96488   24.96603   24.96736   24.96885   24.97049   24.97234   24.97428   24.97639   24.97855   24.98083   24.98329   24.98574   24.98820   24.99060   24.99320   24.99571   24.99800   25.00000   25.00000   25.00000   25.00000   25.00000   25.00000   25.00000   25.00000   25.00000   25.00000   25.00000   25.00000   25.00000   25.00000   25.00000   25.00000   25.00000   25.00000   25.01246   25.04981   25.11194   25.19866   25.30972   25.44479   25.60352   25.78545   25.99009   26.21690   26.46535   26.73481   27.02466   27.33420   27.66286   28.00992   28.37470   28.75649   29.15471
   0.90000   24.95749   24.95759   24.95797   24.95857   24.95943   24.96055   24.96184   24.96333   24.96500   24.96684   24.96891   24.97108   24.97345   24.97586   24.97842   24.98118   24.98392   24.98667   24.98937   24.99227   24.99509   24.99765   25.00000   25.00000   25.00000   25.00000   25.00000   25.00000   25.00000   25.00000   25.00000   25.00000   25.00000   25.00000   25.00000   25.00000   25.00000   25.00000   25.00000   25.00000   25.01246   25.04981   25.11194   25.19866   25.30972   25.44479   25.60352   25.78545   25.99009   26.21690   26.46534   26.73480   27.02465   27.33419   27.66285   28.00991   28.37469   28.75648   29.15469
   1.00000   24.95285   24.95296   24.95338   24.95405   24.95500   24.95624   24.95767   24.95932   24.96116   24.96320   24.96548   24.96789   24.97050   24.97318   24.97600   24.97905   24.98209   24.98514   24.98812   24.99133   24.99445   24.99729   25.00000   25.00000   25.00000   25.00000   25.00000   25.00000   25.00000   25.00000   25.00000   25.00000   25.00000   25.00000   25.00000   25.00000   25.00000   25.00000   25.00000   25.00000   25.01246   25.04981   25.11194   25.19866   25.30972   25.44479   25.60352   25.78545   25.99009   26.21689   26.46534   26.73480   27.02465   27.33419   27.66284   28.00990   28.37468   28.75646   29.15468
   1.10000   24.94823   24.94835   24.94881   24.94954   24.95059   24.95194   24.95350   24.95531   24.95733   24.95956   24.96206   24.96470   24.96756   24.97049   24.97358   24.97693   24.98025   24.98359   24.98685   24.99037   24.99379   24.99690   24.99989   25.00000   25.00000   25.00000   25.00000   25.00000   25.00000   25.00000   25.00000   25.00000   25.00000   25.00000   25.00000   25.00000   25.00000   25.00000   25.00000   25.00000   25.01246   25.04981   25.11194   25.19866   25.30972   25.44479   25.60352   25.78544   25.99009   26.21689   26.46533   26.73479   27.02464   27.33418   27.66283   28.00988   28.37467   28.75645   29.15466
   1.20000   24.94363   24.94376   24.94426   24.94505   24.94619   24.94766   24.94935   24.95132   24.95350   24.95593   24.95865   24.96151   24.96462   24.96780   24.97116   24.97479   24.97840   24.98203   24.98558   24.98940   24.99312   24.99649   24.99975   25.00000   25.00000   25.00000   25.00000   25.00000   25.00000   25.00000   25.00000   25.00000   25.00000   25.00000   25.00000   25.00000   25.00000   25.00000   25.00000   25.00000   25.01246   25.04981   25.11194   25.19866   25.30972   25.44479   25.60352   25.78544   25.99009   26.21689   26.46533   26.73479   27.02463   27.33417   27.66282   28.00987   28.37465   28.75643   29.15464
   1.30000   24.93904   24.93918   24.93972   24.94058   24.94180   24.94339   24.94522   24.94733   24.94969   24.95231   24.95524   24.95833   24.96168   24.96511   24.96874   24.97265   24.97655   24.98046   24.98429   24.98841   24.99242   24.99606   24.99958   25.00000   25.00000   25.00000   25.00000   25.00000   25.00000   25.00000   25.00000   25.00000   25.00000   25.00000   25.00000   25.00000   25.00000   25.00000   25.00000   25.00000   25.01246   25.04981   25.11194   25.19866   25.30972   25.44479   25.60352   25.78544   25.99008   26.21688   26.46532   26.73478   27.02462   27.33416   27.66281   28.00986   28.37464   28.75642   29.15462
   1.40000   24.93447   24.93462   24.93520   24.93612   24.93743   24.93913   24.94109   24.94336   24.94589   24.94869   24.95184   24.95515   24.95875   24.96242   24.96631   24.97051   24.97468   24.97887   24.98298   24.98741   24.99171   24.99561   24.99938   25.00000   25.00000   25.00000   25.00000   25.00000   25.00000   25.00000   25.00000   25.00000   25.00000   25.00000   25.00000   25.00000   25.00000   25.00000   25.00000   25.00000   25.01246   25.04981   25.11194   25.19866   25.30972   25.44479   25.60352   25.78544   25.99008   26.21688   26.46532   26.73477   27.02461   27.33415   27.66279   28.00984   28.37462   28.75640   29.15460
   1.50000   24.92992   24.93008   24.93070   24.93167   24.93307   24.93489   24.93698   24.93940   24.94210   24.94509   24.94844   24.95197   24.95581   24.95973   24.96388   24.96836   24.97281   24.97728   24.98166   24.98639   24.99097   24.99514   24.99917   25.00000   25.00000   25.00000   25.00000   25.00000   25.00000   25.00000   25.00000   25.00000   25.00000   25.00000   25.00000   25.00000   25.00000   25.00000   25.00000   25.00000   25.01246   25.04981   25.11194   25.19866   25.30972   25.44479   25.60352   25.78544   25.99008   26.21687   26.46531   26.73476   27.02460   27.33414   27.66278   28.00983   28.37460   28.75638   29.15458
   1.60000   24.92538   24.92556   24.92621   24.92725   24.92873   24.93066   24.93288   24.93545   24.93831   24.94149   24.94505   24.94880   24.95287   24.95704   24.96144   24.96620   24.97093   24.97568   24.98033   24.98535   24.99022   24.99465   24.99893   25.00000   25.00000   25.00000   25.00000   25.00000   25.00000   25.00000   25.00000   25.00000   25.00000   25.00000   25.00000   25.00000   25.00000   25.00000   25.00000   25.00000   25.01246   25.04981   25.11194   25.19866   25.30972   25.44479   25.60351   25.78544   25.99007   26.21687   26.46530   26.73475   27.02459   27.33412   27.66277   28.00981   28.37458   28.75636   29.15456
   1.70000   24.92086   24.92105   24.92174   24.92283   24.92441   24.92644   24.92879   24.93151   24.93454   24.93790   24.94166   24.94563   24.94994   24.95435   24.95900   24.96403   24.96904   24.97406   24.97899   24.98430   24.98945   24.99414   24.99867   25.00000   25.00000   25.00000   25.00000   25.00000   25.00000   25.00000   25.00000   25.00000   25.00000   25.00000   25.00000   25.00000   25.00000   25.00000   25.00000   25.00000   25.01246   25.04981   25.11194   25.19866   25.30972   25.44479   25.60351   25.78543   25.99007   26.21686   26.46529   26.73474   27.02458   27.33411   27.66275   28.00979   28.37456   28.75634   29.15453
   1.80000   24.91636   24.91655   24.91728   24.91844   24.92009   24.92224   24.92471   24.92758   24.93077   24.93431   24.93828   24.94246   24.94701   24.95165   24.95656   24.96186   24.96714   24.97244   24.97763   24.98323   24.98867   24.99361   24.99839   25.00000   25.00000   25.00000   25.00000   25.00000   25.00000   25.00000   25.00000   25.00000   25.00000   25.00000   25.00000   25.00000   25.00000   25.00000   25.00000   25.00000   25.01246   25.04981   25.11194   25.19866   25.30972   25.44479   25.60351   25.78543   25.99006   26.21685   26.46528   26.73473   27.02457   27.33409   27.66273   28.00978   28.37454   28.75631   29.15450
   1.90000   24.91187   24.91207   24.91284   24.91405   24.91579   24.91805   24.92065   24.92366   24.92701   24.93074   24.93490   24.93930   24.94407   24.94896   24.95412   24.95969   24.96524   24.97080   24.97626   24.98214   24.98786   24.99306   24.99809   25.00000   25.00000   25.00000   25.00000   25.00000   25.00000   25.00000   25.00000   25.00000   25.00000   25.00000   25.00000   25.00000   25.00000   25.00000   25.00000   25.00000   25.01246   25.04981   25.11194   25.19866   25.30972   25.44479   25.60351   25.78543   25.99006   26.21684   26.46527   26.73472   27.02455   27.33408   27.66272   28.00976   28.37452   28.75629   29.15448
   2.00000   24.90740   24.90761   24.90841   24.90969   24.91151   24.91387   24.91660   24.91975   24.92326   24.92717   24.93153   24.93614   24.94114   24.94626   24.95167   24.95751   24.96332   24.96915   24.97488   24.98104   24.98704   24.99249   24.99776   25.00000   25.00000   25.00000   25.00000   25.00000   25.00000   25.00000   25.00000   25.00000   25.00000   25.00000   25.00000   25.00000   25.00000   25.00000   25.00000   25.00000   25.01246   25.04981   25.11194   25.19866   25.30972   25.44479   25.60351   25.78542   25.99005   26.21684   26.46526   26.73471   27.02454   27.33406   27.66270   28.00974   28.37450   28.75626   29.15445
   3.00000   24.86355   24.86385   24.86500   24.86682   24.86943   24.87281   24.87671   24.88122   24.88626   24.89185   24.89811   24.90471   24.91189   24.91924   24.92700   24.93537   24.94372   24.95209   24.96032   24.96919   24.97782   24.98570   24.99332   25.00000   25.00000   25.00000   25.00000   25.00000   25.00000   25.00000   25.00000   25.00000   25.00000   25.00000   25.00000   25.00000   25.00000   25.00000   25.00000   25.00000   25.01246   25.04981   25.11194   25.19866   25.30972   25.44479   25.60347   25.78536   25.98997   26.21673   26.46513   26.73455   27.02436   27.33386   27.66246   28.00947   28.37420   28.75594   29.15408
   4.00000   24.82120   24.82158   24.82304   24.82535   24.82867   24.83296   24.83792   24.84365   24.85007   24.85719   24.86515   24.87357   24.88272   24.89209   24.90198   24.91265   24.92330   24.93398   24.94450   24.95584   24.96687   24.97698   24.98678   24.99598   25.00000   25.00000   25.00000   25.00000   25.00000   25.00000   25.00000   25.00000   25.00000   25.00000   25.00000   25.00000   25.00000   25.00000   25.00000   25.00000   25.01246   25.04981   25.11194   25.19866   25.30972   25.44475   25.60337   25.78525   25.98982   26.21655   26.46492   26.73431   27.02410   27.33356   27.66214   28.00912   28.37381   28.75551   29.15360
   5.00000   24.78024   24.78070   24.78243   24.78519   24.78914   24.79424   24.80016   24.80698   24.81463   24.82313   24.83263   24.84268   24.85360   24.86481   24.87662   24.88935   24.90210   24.91485   24.92746   24.94104   24.95426   24.96643   24.97824   24.98935   25.00000   25.00000   25.00000   25.00000   25.00000   25.00000   25.00000   25.00000   25.00000   25.00000   25.00000   25.00000   25.00000   25.00000   25.00000   25.00000   25.01246   25.04981   25.11194   25.19866   25.30965   25.44462   25.60319   25.78505   25.98959   26.21629   26.46462   26.73398   27.02375   27.33318   27.66172   28.00867   28.37332   28.75498   29.15301
   6.00000   24.74058   24.74111   24.74309   24.74624   24.75074   24.75658   24.76335   24.77113   24.77989   24.78962   24.80049   24.81200   24.82451   24.83737   24.85091   24.86549   24.88011   24.89473   24.90923   24.92485   24.94006   24.95411   24.96776   24.98065   24.99413   25.00000   25.00000   25.00000   25.00000   25.00000   25.00000   25.00000   25.00000   25.00000   25.00000   25.00000   25.00000   25.00000   25.00000   25.00000   25.01246   25.04973   25.11187   25.19851   25.30946   25.44439   25.60292   25.78476   25.98927   26.21593   26.46424   26.73356   27.02331   27.33271   27.66121   28.00813   28.37274   28.75436   29.15233
   7.00000   24.70213   24.70272   24.70491   24.70841   24.71341   24.71988   24.72741   24.73604   24.74579   24.75661   24.76869   24.78150   24.79543   24.80976   24.82485   24.84108   24.85738   24.87367   24.88987   24.90733   24.92432   24.94009   24.95545   24.96997   24.98519   24.99835   25.00000   25.00000   25.00000   25.00000   25.00000   25.00000   25.00000   25.00000   25.00000   25.00000   25.00000   25.00000   25.00000   25.00000   25.01225   25.04942   25.11159   25.19822   25.30914   25.44405   25.60253   25.78436   25.98884   26.21547   26.46374   26.73304   27.02277   27.33214   27.66061   28.00751   28.37208   28.75366   29.15157
   8.00000   24.66478   24.66543   24.66781   24.67162   24.67705   24.68407   24.69226   24.70164   24.71225   24.72404   24.73719   24.75115   24.76633   24.78198   24.79843   24.81611   24.83391   24.85169   24.86942   24.88852   24.90713   24.92447   24.94138   24.95741   24.97424   24.98885   25.00000   25.00000   25.00000   25.00000   25.00000   25.00000   25.00000   25.00000   25.00000   25.00000   25.00000   25.00000   25.00000   25.00000   25.01180   25.04894   25.11114   25.19777   25.30868   25.44357   25.60200   25.78382   25.98828   26.21489   26.46313   26.73241   27.02214   27.33148   27.65992   28.00680   28.37134   28.75289   29.15074
   9.00000   24.62847   24.62916   24.63170   24.63578   24.64157   24.64908   24.65784   24.66786   24.67923   24.69186   24.70594   24.72092   24.73719   24.75400   24.77165   24.79061   24.80973   24.82882   24.84791   24.86848   24.88853   24.90729   24.92563   24.94305   24.96138   24.97734   24.99205   25.00000   25.00000   25.00000   25.00000   25.00000   25.00000   25.00000   25.00000   25.00000   25.00000   25.00000   25.00000   25.00000   25.01114   25.04826   25.11051   25.19714   25.30804   25.44292   25.60131   25.78314   25.98759   26.21418   26.46240   26.73167   27.02139   27.33073   27.65915   28.00601   28.37052   28.75206   29.14986
  10.00000   24.59308   24.59382   24.59650   24.60080   24.60691   24.61483   24.62409   24.63465   24.64667   24.66003   24.67491   24.69076   24.70799   24.72581   24.74451   24.76457   24.78485   24.80509   24.82539   24.84726   24.86860   24.88865   24.90828   24.92698   24.94669   24.96392   24.97986   24.99487   25.00000   25.00000   25.00000   25.00000   25.00000   25.00000   25.00000   25.00000   25.00000   25.00000   25.00000   25.00000   25.01024   25.04736   25.10966   25.19631   25.30721   25.44209   25.60046   25.78230   25.98674   26.21332   26.46153   26.73080   27.02054   27.32987   27.65828   28.00515   28.36964   28.75117   29.14894
  11.00000   24.55855   24.55932   24.56212   24.56661   24.57298   24.58124   24.59092   24.60194   24.61452   24.62850   24.64406   24.66066   24.67871   24.69740   24.71700   24.73802   24.75930   24.78054   24.80190   24.82492   24.84738   24.86859   24.88940   24.90928   24.93026   24.94869   24.96578   24.98195   24.99766   25.00000   25.00000   25.00000   25.00000   25.00000   25.00000   25.00000   25.00000   25.00000   25.00000   25.00000   25.00908   25.04620   25.10857   25.19525   25.30617   25.44105   25.59940   25.78127   25.98572   26.21231   26.46052   26.72980   27.01956   27.32890   27.65732   28.00420   28.36870   28.75023   29.14798
  12.00000   24.52478   24.52559   24.52848   24.53312   24.53971   24.54825   24.55828   24.56967   24.58272   24.59722   24.61334   24.63058   24.64932   24.66876   24.68913   24.71095   24.73310   24.75518   24.77747   24.80149   24.82495   24.84720   24.86907   24.89003   24.91219   24.93172   24.94991   24.96719   24.98411   24.99954   25.00000   25.00000   25.00000   25.00000   25.00000   25.00000   25.00000   25.00000   25.00000   25.00000   25.00762   25.04475   25.10722   25.19394   25.30489   25.43979   25.59814   25.78005   25.98452   26.21113   26.45936   26.72867   27.01847   27.32783   27.65626   28.00318   28.36770   28.74925   29.14699
  13.00000   24.49170   24.49253   24.49550   24.50027   24.50703   24.51579   24.52610   24.53778   24.55121   24.56615   24.58273   24.60050   24.61981   24.63987   24.66089   24.68337   24.70625   24.72906   24.75215   24.77703   24.80135   24.82453   24.84736   24.86931   24.89255   24.91313   24.93235   24.95069   24.96879   24.98537   24.99888   25.00000   25.00000   25.00000   25.00000   25.00000   25.00000   25.00000   25.00000   25.00000   25.00584   25.04300   25.10558   25.19236   25.30335   25.43829   25.59665   25.77863   25.98313   26.20977   26.45803   26.72739   27.01724   27.32665   27.65511   28.00209   28.36664   28.74823   29.14599
  14.00000   24.45923   24.46008   24.46311   24.46797   24.47486   24.48379   24.49431   24.50623   24.51996   24.53524   24.55219   24.57038   24.59016   24.61073   24.63227   24.65530   24.67878   24.70219   24.72596   24.75158   24.77664   24.80066   24.82435   24.84720   24.87143   24.89298   24.91318   24.93255   24.95179   24.96952   24.98416   24.99758   25.00000   25.00000   25.00000   25.00000   25.00000   25.00000   25.00000   25.00000   25.00370   25.04092   25.10362   25.19048   25.30153   25.43653   25.59492   25.77697   25.98153   26.20823   26.45653   26.72595   27.01588   27.32536   27.65387   28.00092   28.36552   28.74718   29.14497
  15.00000   24.42729   24.42816   24.43122   24.43615   24.44314   24.45218   24.46287   24.47495   24.48891   24.50445   24.52168   24.54020   24.56034   24.58133   24.60329   24.62674   24.65071   24.67461   24.69895   24.72520   24.75089   24.77563   24.80010   24.82376   24.84891   24.87137   24.89251   24.91285   24.93321   24.95207   24.96785   24.98254   24.99527   25.00000   25.00000   25.00000   25.00000   25.00000   25.00000   25.00000   25.00120   25.03849   25.10133   25.18829   25.29941   25.43450   25.59294   25.77508   25.97972   26.20648   26.45485   26.72436   27.01439   27.32394   27.65252   27.99968   28.36436   28.74609   29.14395
  16.00000   24.39581   24.39669   24.39978   24.40475   24.41179   24.42091   24.43171   24.44389   24.45802   24.47374   24.49117   24.50994   24.53034   24.55165   24.57392   24.59770   24.62205   24.64633   24.67116   24.69792   24.72413   24.74952   24.77468   24.79909   24.82507   24.84839   24.87040   24.89169   24.91314   24.93310   24.95003   24.96602   24.98006   24.99213   25.00000   25.00000   25.00000   25.00000   25.00000   25.00000   25.00000   25.03567   25.09868   25.18576   25.29698   25.43216   25.59068   25.77294   25.97767   26.20452   26.45298   26.72260   27.01274   27.32240   27.65108   27.99836   28.36314   28.74498   29.14292
  17.00000   24.36471   24.36560   24.36870   24.37370   24.38076   24.38991   24.40078   24.41301   24.42724   24.44308   24.46063   24.47956   24.50015   24.52169   24.54419   24.56818   24.59283   24.61740   24.64261   24.66979   24.69643   24.72238   24.74815   24.77324   24.79999   24.82411   24.84696   24.86915   24.89166   24.91272   24.93080   24.94810   24.96348   24.97699   24.98792   24.99826   25.00000   25.00000   25.00000   25.00000   25.00000   25.03246   25.09566   25.18288   25.29422   25.42952   25.58813   25.77053   25.97538   26.20235   26.45091   26.72067   27.01095   27.32074   27.64953   27.99696   28.36186   28.74385   29.14191
  18.00000   24.33394   24.33483   24.33793   24.34293   24.34998   24.35913   24.37001   24.38224   24.39652   24.41242   24.43002   24.44905   24.46974   24.49143   24.51408   24.53820   24.56305   24.58783   24.61334   24.64084   24.66784   24.69427   24.72058   24.74629   24.77374   24.79861   24.82226   24.84532   24.86887   24.89101   24.91024   24.92887   24.94562   24.96061   24.97321   24.98522   24.99579   25.00000   25.00000   25.00000   25.00000   25.02884   25.09225   25.17962   25.29111   25.42656   25.58528   25.76784   25.97283   26.19994   26.44864   26.71855   27.00900   27.31895   27.64788   27.99548   28.36054   28.74269   29.14089
  19.00000   24.30341   24.30431   24.30739   24.31237   24.31940   24.32850   24.33937   24.35155   24.36583   24.38173   24.39932   24.41838   24.43911   24.46087   24.48359   24.50776   24.53274   24.55764   24.58338   24.61113   24.63839   24.66524   24.69204   24.71830   24.74639   24.77196   24.79638   24.82028   24.84484   24.86805   24.88844   24.90840   24.92654   24.94305   24.95739   24.97111   24.98346   24.99415   25.00000   25.00000   25.00000   25.02478   25.08842   25.17598   25.28764   25.42325   25.58212   25.76487   25.97003   26.19729   26.44615   26.71625   27.00688   27.31702   27.64611   27.99393   28.35917   28.74151   29.13989
  20.00000   24.27307   24.27397   24.27702   24.28198   24.28894   24.29798   24.30879   24.32089   24.33512   24.35097   24.36849   24.38753   24.40822   24.43000   24.45272   24.47688   24.50190   24.52687   24.55276   24.58069   24.60815   24.63536   24.66257   24.68934   24.71802   24.74426   24.76939   24.79412   24.81966   24.84391   24.86546   24.88678   24.90633   24.92438   24.94050   24.95601   24.97019   24.98281   24.99272   24.99272   24.99272   25.02026   25.08416   25.17193   25.28378   25.41959   25.57863   25.76159   25.96694   26.19440   26.44344   26.71375   27.00460   27.31495   27.64423   27.99229   28.35775   28.74031   29.13890
  21.00000   24.24285   24.24375   24.24677   24.25168   24.25857   24.26751   24.27823   24.29021   24.30435   24.32012   24.33752   24.35647   24.37708   24.39882   24.42148   24.44556   24.47056   24.49553   24.52152   24.54956   24.57716   24.60467   24.63225   24.65947   24.68869   24.71555   24.74138   24.76690   24.79341   24.81870   24.84141   24.86407   24.88504   24.90468   24.92262   24.93995   24.95601   24.97064   24.98277   24.98277   24.98277   25.01528   25.07945   25.16747   25.27953   25.41556   25.57480   25.75800   25.96358   26.19124   26.44049   26.71105   27.00214   27.31273   27.64224   27.99057   28.35627   28.73908   29.13793
  22.00000   24.21270   24.21360   24.21658   24.22142   24.22821   24.23704   24.24765   24.25947   24.27349   24.28913   24.30637   24.32520   24.34567   24.36731   24.38986   24.41380   24.43873   24.46365   24.48968   24.51777   24.54546   24.57322   24.60112   24.62876   24.65847   24.68592   24.71242   24.73870   24.76616   24.79247   24.81634   24.84036   24.86276   24.88400   24.90379   24.92299   24.94098   24.95766   24.97209   24.97209   24.97209   25.00980   25.07429   25.16257   25.27488   25.41115   25.57063   25.75409   25.95992   26.18782   26.43731   26.70814   26.99950   27.31036   27.64013   27.98876   28.35473   28.73784   29.13697
  23.00000   24.18256   24.18345   24.18638   24.19115   24.19783   24.20652   24.21699   24.22864   24.24250   24.25797   24.27502   24.29368   24.31397   24.33546   24.35786   24.38161   24.40643   24.43126   24.45728   24.48537   24.51309   24.54106   24.56924   24.59726   24.62742   24.65544   24.68258   24.70961   24.73799   24.76530   24.79033   24.81570   24.83955   24.86241   24.88408   24.90518   24.92513   24.94391   24.96069   24.96069   24.96515   25.00383   25.06865   25.15722   25.26980   25.40636   25.56609   25.74985   25.95595   26.18413   26.43388   26.70502   26.99668   27.30784   27.63788   27.98686   28.35314   28.73657   29.13602
  24.00000   24.15237   24.15325   24.15612   24.16081   24.16737   24.17590   24.18622   24.19767   24.21135   24.22662   24.24344   24.26190   24.28197   24.30328   24.32548   24.34901   24.37367   24.39836   24.42434   24.45239   24.48011   24.50824   24.53667   24.56504   24.59561   24.62416   24.65192   24.67968   24.70896   24.73727   24.76345   24.79018   24.81548   24.83997   24.86354   24.88656   24.90851   24.92941   24.94858   24.94858   24.95837   24.99735   25.06252   25.15141   25.26430   25.40116   25.56118   25.74526   25.95167   26.18015   26.43020   26.70167   26.99366   27.30516   27.63551   27.98486   28.35149   28.73527   29.13509
  25.00000   24.12208   24.12295   24.12576   24.13036   24.13678   24.14514   24.15528   24.16652   24.18000   24.19505   24.21161   24.22984   24.24967   24.27076   24.29273   24.31600   24.34046   24.36499   24.39088   24.41886   24.44654   24.47481   24.50346   24.53214   24.56310   24.59216   24.62052   24.64899   24.67915   24.70845   24.73578   24.76385   24.79061   24.81674   24.84223   24.86719   24.89114   24.91421   24.93581   24.93629   24.95104   24.99034   25.05590   25.14513   25.25835   25.39554   25.55589   25.74033   25.94707   26.17588   26.42625   26.69809   26.99044   27.30231   27.63301   27.98276   28.34977   28.73395   29.13416
  26.00000   24.09164   24.09250   24.09525   24.09975   24.10603   24.11420   24.12415   24.13517   24.14842   24.16323   24.17952   24.19749   24.21704   24.23789   24.25960   24.28259   24.30682   24.33116   24.35695   24.38482   24.41243   24.44082   24.46965   24.49862   24.52994   24.55949   24.58844   24.61760   24.64863   24.67889   24.70738   24.73679   24.76499   24.79278   24.82018   24.84710   24.87308   24.89832   24.92237   24.92801   24.94313   24.98279   25.04876   25.13837   25.25195   25.38951   25.55022   25.73503   25.94215   26.17131   26.42204   26.69428   26.98702   27.29929   27.63036   27.98056   28.34798   28.73259   29.13325
  27.00000   24.06100   24.06184   24.06453   24.06893   24.07505   24.08304   24.09279   24.10356   24.11658   24.13113   24.14713   24.16483   24.18408   24.20466   24.22610   24.24878   24.27276   24.29690   24.32256   24.35030   24.37782   24.40630   24.43529   24.46454   24.49618   24.52622   24.55573   24.58558   24.61745   24.64868   24.67830   24.70904   24.73870   24.76813   24.79746   24.82635   24.85435   24.88179   24.90830   24.91913   24.93465   24.97470   25.04111   25.13112   25.24509   25.38305   25.54414   25.72936   25.93688   26.16643   26.41755   26.69022   26.98339   27.29609   27.62757   27.97824   28.34611   28.73119   29.13233
  28.00000   24.03011   24.03094   24.03356   24.03785   24.04383   24.05162   24.06116   24.07169   24.08446   24.09873   24.11443   24.13185   24.15078   24.17108   24.19222   24.21459   24.23830   24.26222   24.28773   24.31532   24.34275   24.37129   24.40043   24.42994   24.46190   24.49239   24.52246   24.55298   24.58569   24.61786   24.64863   24.68068   24.71178   24.74286   24.77411   24.80497   24.83500   24.86463   24.89361   24.90962   24.92558   24.96605   25.03292   25.12337   25.23775   25.37614   25.53766   25.72332   25.93127   26.16124   26.41277   26.68592   26.97953   27.29270   27.62463   27.97581   28.34417   28.72976   29.13142
  29.00000   23.99894   23.99976   24.00230   24.00649   24.01230   24.01990   24.02922   24.03950   24.05202   24.06602   24.08140   24.09852   24.11713   24.13713   24.15797   24.18001   24.20344   24.22714   24.25250   24.27993   24.30724   24.33584   24.36512   24.39487   24.42713   24.45807   24.48868   24.51987   24.55339   24.58651   24.61840   24.65177   24.68429   24.71702   24.75018   24.78301   24.81506   24.84689   24.87833   24.89949   24.91592   24.95684   25.02420   25.11511   25.22994   25.36879   25.53077   25.71690   25.92531   26.15573   26.40771   26.68136   26.97546   27.28913   27.62153   27.97326   28.34215   28.72827   29.13050
  30.00000   23.96743   23.96824   23.97071   23.97479   23.98045   23.98784   23.99695   24.00698   24.01924   24.03295   24.04802   24.06484   24.08313   24.10282   24.12335   24.14506   24.16821   24.19168   24.21688   24.24414   24.27134   24.29999   24.32939   24.35937   24.39192   24.42330   24.45445   24.48630   24.52062   24.55467   24.58769   24.62234   24.65629   24.69066   24.72571   24.76050   24.79456   24.82858   24.86247   24.88873   24.90565   24.94706   25.01493   25.10634   25.22165   25.36099   25.52346   25.71008   25.91899   26.14989   26.40235   26.67654   26.97115   27.28536   27.61826   27.97058   28.34003   28.72673   29.12956
  31.00000   23.93556   23.93635   23.93875   23.94273   23.94822   23.95542   23.96431   23.97410   23.98609   23.99953   24.01428   24.03080   24.04876   24.06814   24.08837   24.10975   24.13262   24.15586   24.18089   24.20799   24.23507   24.26377   24.29329   24.32350   24.35633   24.38814   24.41983   24.45233   24.48744   24.52241   24.55654   24.59247   24.62782   24.66381   24.70074   24.73748   24.77354   24.80973   24.84605   24.87733   24.89478   24.93670   25.00512   25.09705   25.21287   25.35273   25.51572   25.70287   25.91231   26.14372   26.39669   26.67145   26.96660   27.28138   27.61482   27.96777   28.33781   28.72513   29.12861
  32.00000   23.90328   23.90406   23.90639   23.91026   23.91560   23.92260   23.93128   23.94083   23.95257   23.96572   23.98016   23.99639   24.01402   24.03309   24.05302   24.07408   24.09666   24.11970   24.14457   24.17151   24.19847   24.22721   24.25686   24.28730   24.32039   24.35264   24.38485   24.41800   24.45389   24.48977   24.52501   24.56219   24.59894   24.63654   24.67532   24.71399   24.75202   24.79037   24.82909   24.86528   24.88329   24.92576   24.99475   25.08723   25.20359   25.34400   25.50755   25.69526   25.90525   26.13721   26.39073   26.66608   26.96181   27.27719   27.61121   27.96481   28.33548   28.72345   29.12762
  33.00000   23.87057   23.87133   23.87359   23.87736   23.88255   23.88936   23.89782   23.90714   23.91863   23.93151   23.94565   23.96159   23.97889   23.99767   24.01730   24.03806   24.06037   24.08321   24.10792   24.13471   24.16156   24.19035   24.22012   24.25079   24.28416   24.31683   24.34958   24.38337   24.42002   24.45680   24.49315   24.53157   24.56969   24.60888   24.64948   24.69007   24.73005   24.77053   24.81162   24.85259   24.87119   24.91423   24.98382   25.07688   25.19381   25.33480   25.49894   25.68724   25.89782   26.13035   26.38444   26.66043   26.95677   27.27278   27.60741   27.96171   28.33305   28.72171   29.12660
  34.00000   23.83738   23.83813   23.84033   23.84399   23.84903   23.85566   23.86393   23.87303   23.88427   23.89688   23.91073   23.92639   23.94339   23.96187   23.98122   24.00169   24.02374   24.04640   24.07098   24.09762   24.12438   24.15323   24.18313   24.21403   24.24767   24.28077   24.31405   24.34849   24.38589   24.42356   24.46101   24.50063   24.54011   24.58087   24.62327   24.66575   24.70764   24.75023   24.79364   24.83925   24.85847   24.90212   24.97233   25.06600   25.18352   25.32513   25.48990   25.67881   25.89001   26.12314   26.37784   26.65449   26.95147   27.26815   27.60342   27.95844   28.33048   28.71987   29.12554
  35.00000   23.80369   23.80443   23.80656   23.81013   23.81503   23.82149   23.82956   23.83845   23.84946   23.86182   23.87540   23.89079   23.90750   23.92570   23.94479   23.96499   23.98680   24.00930   24.03375   24.06026   24.08696   24.11587   24.14591   24.17705   24.21096   24.24450   24.27830   24.31339   24.35154   24.39009   24.42862   24.46944   24.51026   24.55256   24.59672   24.64106   24.68484   24.72949   24.77519   24.82526   24.84513   24.88943   24.96028   25.05459   25.17273   25.31499   25.48041   25.66996   25.88181   26.11558   26.37091   26.64826   26.94590   27.26329   27.59922   27.95501   28.32779   28.71794   29.12441
  36.00000   23.76948   23.77020   23.77227   23.77575   23.78052   23.78682   23.79471   23.80341   23.81420   23.82631   23.83964   23.85478   23.87122   23.88915   23.90800   23.92796   23.94955   23.97191   23.99626   24.02267   24.04931   24.07830   24.10849   24.13988   24.17407   24.20805   24.24239   24.27812   24.31700   24.35643   24.39603   24.43803   24.48016   24.52399   24.56986   24.61603   24.66166   24.70834   24.75626   24.81062   24.83118   24.87614   24.94766   25.04263   25.16144   25.30436   25.47047   25.66070   25.87322   26.10766   26.36365   26.64173   26.94006   27.25818   27.59482   27.95140   28.32496   28.71590   29.12322
  37.00000   23.73471   23.73542   23.73744   23.74083   23.74548   23.75163   23.75935   23.76787   23.77846   23.79035   23.80344   23.81836   23.83454   23.85223   23.87086   23.89060   23.91199   23.93426   23.95852   23.98485   24.01146   24.04055   24.07091   24.10256   24.13703   24.17146   24.20634   24.24272   24.28233   24.32263   24.36329   24.40643   24.44985   24.49518   24.54274   24.59070   24.63813   24.68680   24.73689   24.79533   24.81660   24.86226   24.93448   25.03014   25.14963   25.29325   25.46008   25.65101   25.86424   26.09937   26.35605   26.63489   26.93395   27.25283   27.59020   27.94761   28.32197   28.71374   29.12195
  38.00000   23.69937   23.70007   23.70203   23.70535   23.70989   23.71590   23.72346   23.73183   23.74223   23.75392   23.76680   23.78151   23.79746   23.81493   23.83337   23.85293   23.87415   23.89634   23.92055   23.94682   23.97344   24.00265   24.03318   24.06511   24.09988   24.13476   24.17019   24.20722   24.24755   24.28872   24.33043   24.37470   24.41938   24.46618   24.51537   24.56509   24.61428   24.66489   24.71709   24.77941   24.80141   24.84781   24.92074   25.01712   25.13731   25.28166   25.44924   25.64089   25.85486   26.09071   26.34811   26.62774   26.92755   27.24722   27.58535   27.94362   28.31882   28.71145   29.12059
  39.00000   23.66343   23.66412   23.66604   23.66929   23.67373   23.67962   23.68704   23.69528   23.70551   23.71701   23.72971   23.74424   23.75999   23.77726   23.79554   23.81495   23.83604   23.85819   23.88236   23.90861   23.93526   23.96461   23.99535   24.02757   24.06265   24.09799   24.13398   24.17167   24.21271   24.25473   24.29749   24.34286   24.38878   24.43701   24.48779   24.53923   24.59013   24.64263   24.69688   24.76284   24.78561   24.83276   24.90643   25.00356   25.12449   25.26959   25.43795   25.63035   25.84508   26.08167   26.33983   26.62027   26.92085   27.24135   27.58027   27.93943   28.31549   28.70902   29.11912
  40.00000   23.62688   23.62755   23.62943   23.63263   23.63698   23.64276   23.65006   23.65819   23.66827   23.67962   23.69215   23.70653   23.72211   23.73922   23.75737   23.77667   23.79765   23.81980   23.84398   23.87024   23.89696   23.92647   23.95743   23.98996   24.02536   24.06118   24.09773   24.13609   24.17784   24.22071   24.26450   24.31094   24.35807   24.40771   24.46003   24.51314   24.56571   24.62005   24.67627   24.74564   24.76921   24.81714   24.89157   24.98946   25.11115   25.25704   25.42621   25.61937   25.83490   26.07226   26.33119   26.61247   26.91386   27.23521   27.57495   27.93502   28.31198   28.70644   29.11752
  41.00000   23.58970   23.59036   23.59221   23.59535   23.59963   23.60533   23.61252   23.62056   23.63052   23.64173   23.65414   23.66840   23.68383   23.70080   23.71886   23.73809   23.75900   23.78119   23.80540   23.83172   23.85853   23.88823   23.91944   23.95230   23.98805   24.02436   24.06148   24.10051   24.14296   24.18668   24.23149   24.27898   24.32730   24.37830   24.43212   24.48686   24.54104   24.59716   24.65528   24.72782   24.75220   24.80095   24.87615   24.97484   25.09731   25.24400   25.41400   25.60797   25.82430   26.06246   26.32219   26.60435   26.90656   27.22878   27.56937   27.93038   28.30828   28.70368   29.11580
  42.00000   23.55187   23.55253   23.55435   23.55745   23.56167   23.56730   23.57440   23.58238   23.59224   23.60335   23.61566   23.62982   23.64515   23.66202   23.68002   23.69922   23.72010   23.74237   23.76666   23.79305   23.82001   23.84993   23.88141   23.91463   23.95073   23.98755   24.02526   24.06497   24.10811   24.15266   24.19849   24.24700   24.29648   24.34882   24.40407   24.46039   24.51613   24.57398   24.63393   24.70938   24.73461   24.78419   24.86019   24.95968   25.08297   25.23049   25.40135   25.59613   25.81330   26.05228   26.31283   26.59588   26.89894   27.22206   27.56352   27.92551   28.30436   28.70075   29.11391
  43.00000   23.51340   23.51405   23.51585   23.51891   23.52309   23.52867   23.53570   23.54365   23.55343   23.56447   23.57671   23.59081   23.60607   23.62287   23.64085   23.66007   23.68096   23.70335   23.72775   23.75427   23.78141   23.81158   23.84336   23.87695   23.91344   23.95078   23.98908   24.02948   24.07332   24.11870   24.16553   24.21503   24.26564   24.31928   24.37592   24.43378   24.49102   24.55054   24.61223   24.69033   24.71642   24.76686   24.84368   24.94401   25.06813   25.21649   25.38824   25.58386   25.80189   26.04171   26.30311   26.58707   26.89101   27.21505   27.55740   27.92038   28.30021   28.69761   29.11186
  44.00000   23.47426   23.47491   23.47669   23.47973   23.48388   23.48943   23.49642   23.50436   23.51409   23.52508   23.53729   23.55137   23.56660   23.58335   23.60137   23.62064   23.64159   23.66415   23.68870   23.71538   23.74274   23.77319   23.80530   23.83929   23.87618   23.91406   23.95298   23.99407   24.03860   24.08481   24.13262   24.18310   24.23481   24.28971   24.34769   24.40703   24.46572   24.52684   24.59020   24.67069   24.69767   24.74899   24.82664   24.92783   25.05279   25.20203   25.37468   25.57116   25.79007   26.03075   26.29301   26.57792   26.88274   27.20773   27.55100   27.91499   28.29583   28.69426   29.10962
  45.00000   23.43445   23.43510   23.43687   23.43990   23.44403   23.44957   23.45655   23.46450   23.47421   23.48518   23.49740   23.51149   23.52672   23.54348   23.56156   23.58094   23.60199   23.62476   23.64950   23.67639   23.70402   23.73478   23.76726   23.80167   23.83898   23.87741   23.91696   23.95876   24.00397   24.05101   24.09980   24.15123   24.20401   24.26013   24.31939   24.38016   24.44025   24.50291   24.56785   24.65046   24.67835   24.73058   24.80908   24.91113   25.03696   25.18709   25.36067   25.55802   25.77783   26.01940   26.28255   26.56840   26.87414   27.20009   27.54430   27.90933   28.29119   28.69068   29.10717
  46.00000   23.39398   23.39462   23.39639   23.39942   23.40355   23.40910   23.41608   23.42408   23.43380   23.44478   23.45704   23.47118   23.48645   23.50325   23.52144   23.54098   23.56217   23.58520   23.61017   23.63732   23.66525   23.69637   23.72923   23.76410   23.80186   23.84086   23.88105   23.92356   23.96947   24.01733   24.06708   24.11943   24.17325   24.23056   24.29105   24.35320   24.41462   24.47876   24.54520   24.62966   24.65848   24.71163   24.79099   24.89393   25.02065   25.17169   25.34622   25.54446   25.76518   26.00765   26.27170   26.55853   26.86519   27.19213   27.53730   27.90338   28.28628   28.68684   29.10450
  47.00000   23.35282   23.35347   23.35524   23.35828   23.36244   23.36802   23.37502   23.38309   23.39285   23.40387   23.41621   23.43044   23.44580   23.46268   23.48102   23.50076   23.52214   23.54547   23.57073   23.59817   23.62646   23.65795   23.69124   23.72659   23.76482   23.80442   23.84527   23.88850   23.93510   23.98377   24.03447   24.08772   24.14256   24.20102   24.26267   24.32615   24.38886   24.45440   24.52227   24.60831   24.63807   24.69216   24.77240   24.87624   25.00386   25.15582   25.33132   25.53046   25.75212   25.99550   26.26047   26.54829   26.85590   27.18383   27.52997   27.89712   28.28109   28.68275   29.10158
  48.00000   23.31100   23.31164   23.31343   23.31649   23.32068   23.32632   23.33336   23.34154   23.35136   23.36246   23.37492   23.38927   23.40475   23.42176   23.44030   23.46029   23.48191   23.50559   23.53117   23.55895   23.58764   23.61955   23.65330   23.68915   23.72788   23.76810   23.80962   23.85359   23.90087   23.95036   24.00200   24.05612   24.11195   24.17151   24.23429   24.29904   24.36297   24.42986   24.49906   24.58642   24.61714   24.67219   24.75331   24.85807   24.98661   25.13950   25.31598   25.51604   25.73864   25.98295   26.24885   26.53768   26.84624   27.17518   27.52232   27.89055   28.27560   28.67837   29.09839
  49.00000   23.26850   23.26915   23.27095   23.27405   23.27830   23.28400   23.29112   23.29943   23.30934   23.32056   23.33317   23.34768   23.36333   23.38049   23.39928   23.41958   23.44148   23.46556   23.49150   23.51967   23.54881   23.58118   23.61541   23.65180   23.69106   23.73190   23.77411   23.81883   23.86680   23.91710   23.96967   24.02465   24.08143   24.14207   24.20590   24.27188   24.33697   24.40514   24.47559   24.56400   24.59571   24.65172   24.73374   24.83943   24.96889   25.12274   25.30021   25.50119   25.72475   25.97000   26.23685   26.52669   26.83622   27.16618   27.51432   27.88365   28.26978   28.67368   29.09491
  50.00000   23.22534   23.22599   23.22782   23.23097   23.23528   23.24108   23.24830   23.25676   23.26680   23.27816   23.29096   23.30567   23.32153   23.33890   23.35798   23.37862   23.40086   23.42538   23.45173   23.48034   23.50997   23.54283   23.57759   23.61454   23.65435   23.69585   23.73876   23.78424   23.83290   23.88401   23.93750   23.99330   24.05102   24.11268   24.17753   24.24467   24.31087   24.38026   24.45187   24.54109   24.57378   24.63078   24.71370   24.82032   24.95072   25.10553   25.28400   25.48592   25.71045   25.95665   26.22445   26.51531   26.82582   27.15682   27.50598   27.87640   28.26364   28.66867   29.09112
  51.00000   23.18152   23.18218   23.18404   23.18725   23.19165   23.19756   23.20490   23.21355   23.22374   23.23528   23.24831   23.26325   23.27937   23.29698   23.31640   23.33744   23.36005   23.38507   23.41187   23.44095   23.47112   23.50451   23.53983   23.57738   23.61776   23.65994   23.70357   23.74982   23.79917   23.85108   23.90548   23.96210   24.02072   24.08338   24.14918   24.21744   24.28469   24.35524   24.42793   24.51769   24.55138   24.60937   24.69320   24.80077   24.93212   25.08789   25.26737   25.47023   25.69574   25.94289   26.21166   26.50355   26.81504   27.14708   27.49726   27.86879   28.25714   28.66331   29.08699
  52.00000   23.13706   23.13772   23.13963   23.14290   23.14741   23.15346   23.16093   23.16980   23.18017   23.19192   23.20522   23.22043   23.23684   23.25474   23.27454   23.29603   23.31906   23.34462   23.37192   23.40152   23.43227   23.46623   23.50214   23.54031   23.58130   23.62417   23.66855   23.71558   23.76563   23.81834   23.87363   23.93104   23.99054   24.05415   24.12086   24.19019   24.25844   24.33007   24.40377   24.49383   24.52852   24.58752   24.67226   24.78078   24.91308   25.06982   25.25033   25.45413   25.68061   25.92873   26.19847   26.49139   26.80387   27.13695   27.48817   27.86080   28.25027   28.65759   29.08250
  53.00000   23.09196   23.09263   23.09458   23.09793   23.10256   23.10877   23.11641   23.12552   23.13610   23.14809   23.16169   23.17722   23.19396   23.21219   23.23241   23.25439   23.27790   23.30404   23.33188   23.36205   23.39343   23.42799   23.46452   23.50335   23.54497   23.58855   23.63369   23.68151   23.73226   23.78577   23.84195   23.90013   23.96048   24.02501   24.09258   24.16292   24.23212   24.30478   24.37940   24.46953   24.50524   24.56524   24.65090   24.76037   24.89363   25.05134   25.23287   25.43761   25.66508   25.91416   26.18488   26.47883   26.79230   27.12643   27.47868   27.85242   28.24301   28.65148   29.07762
  54.00000   23.04624   23.04692   23.04893   23.05237   23.05713   23.06351   23.07134   23.08072   23.09153   23.10380   23.11774   23.13362   23.15074   23.16933   23.19002   23.21255   23.23657   23.26333   23.29175   23.32254   23.35459   23.38978   23.42698   23.46649   23.50877   23.55309   23.59899   23.64762   23.69907   23.75339   23.81044   23.86937   23.93055   23.99597   24.06435   24.13565   24.20575   24.27938   24.35484   24.44481   24.48154   24.54255   24.62913   24.73955   24.87377   25.03245   25.21500   25.42070   25.64914   25.89919   26.17088   26.46586   26.78033   27.11549   27.46879   27.84363   28.23534   28.64497   29.07233
  55.00000   22.99991   23.00060   23.00268   23.00622   23.01114   23.01771   23.02575   23.03542   23.04650   23.05907   23.07339   23.08965   23.10718   23.12618   23.14738   23.17049   23.19507   23.22250   23.25155   23.28298   23.31575   23.35162   23.38950   23.42972   23.47268   23.51776   23.56446   23.61390   23.66606   23.72117   23.77910   23.83876   23.90076   23.96702   24.03616   24.10838   24.17933   24.25387   24.33010   24.41971   24.45745   24.51948   24.60696   24.71834   24.85352   25.01318   25.19674   25.40338   25.63280   25.88382   26.15647   26.45249   26.76794   27.10414   27.45848   27.83442   28.22723   28.63801   29.06661
  56.00000   22.95300   22.95371   22.95585   22.95950   22.96459   22.97137   22.97965   22.98963   23.00100   23.01391   23.02863   23.04531   23.06329   23.08274   23.10449   23.12823   23.15342   23.18154   23.21126   23.24339   23.27691   23.31348   23.35209   23.39305   23.43672   23.48258   23.53008   23.58035   23.63322   23.68913   23.74791   23.80830   23.87108   23.93816   24.00803   24.08111   24.15287   24.22826   24.30520   24.39424   24.43300   24.49604   24.58443   24.69676   24.83289   24.99351   25.17810   25.38567   25.61607   25.86804   26.14166   26.43869   26.75513   27.09237   27.44773   27.82476   28.21868   28.63060   29.06041
  57.00000   22.90553   22.90625   22.90847   22.91224   22.91751   22.92452   22.93305   22.94336   22.95506   22.96834   22.98349   23.00062   23.01909   23.03903   23.06137   23.08577   23.11161   23.14047   23.17089   23.20375   23.23807   23.27538   23.31474   23.35646   23.40088   23.44752   23.49585   23.54696   23.60055   23.65726   23.71688   23.77798   23.84154   23.90940   23.97995   24.05385   24.12638   24.20256   24.28013   24.36844   24.40821   24.47226   24.56155   24.67482   24.81190   24.97348   25.15907   25.36757   25.59893   25.85185   26.12644   26.42448   26.74189   27.08014   27.43654   27.81464   28.20966   28.62271   29.05372
  58.00000   22.85752   22.85826   22.86055   22.86446   22.86992   22.87718   22.88598   22.89665   22.90869   22.92236   22.93798   22.95560   22.97459   22.99505   23.01802   23.04312   23.06964   23.09927   23.13044   23.16406   23.19922   23.23730   23.27745   23.31996   23.36513   23.41259   23.46176   23.51372   23.56802   23.62553   23.68600   23.74780   23.81211   23.88072   23.95192   24.02660   24.09985   24.17679   24.25493   24.34233   24.38311   24.44815   24.53834   24.65255   24.79056   24.95309   25.13967   25.34909   25.58141   25.83527   26.11080   26.40984   26.72821   27.06747   27.42488   27.80404   28.20014   28.61431   29.04650
  59.00000   22.80900   22.80975   22.81213   22.81618   22.82185   22.82937   22.83846   22.84951   22.86191   22.87600   22.89212   22.91025   22.92979   22.95081   22.97444   23.00029   23.02753   23.05796   23.08990   23.12433   23.16035   23.19924   23.24019   23.28352   23.32948   23.37777   23.42779   23.48061   23.53565   23.59395   23.65525   23.71774   23.78279   23.85212   23.92394   23.99936   24.07330   24.15093   24.22959   24.31595   24.35772   24.42376   24.51482   24.62996   24.76890   24.93236   25.11992   25.33024   25.56349   25.81828   26.09475   26.39476   26.71409   27.05434   27.41275   27.79294   28.19010   28.60538   29.03872
  60.00000   22.75999   22.76076   22.76324   22.76743   22.77332   22.78111   22.79052   22.80196   22.81474   22.82928   22.84591   22.86459   22.88472   22.90632   22.93065   22.95727   22.98527   23.01653   23.04928   23.08454   23.12147   23.16118   23.20297   23.24714   23.29391   23.34305   23.39393   23.44762   23.50339   23.56250   23.62462   23.68780   23.75357   23.82360   23.89600   23.97212   24.04673   24.12501   24.20412   24.28932   24.33207   24.39909   24.49102   24.60706   24.74692   24.91130   25.09982   25.31102   25.54519   25.80089   26.07828   26.37925   26.69951   27.04072   27.40013   27.78133   28.17953   28.59588   29.03036
  61.00000   22.71053   22.71132   22.71389   22.71824   22.72436   22.73244   22.74217   22.75402   22.76720   22.78221   22.79939   22.81864   22.83938   22.86160   22.88666   22.91408   22.94287   22.97498   23.00857   23.04469   23.08255   23.12311   23.16577   23.21080   23.25840   23.30840   23.36016   23.41473   23.47125   23.53116   23.59410   23.65796   23.72444   23.79514   23.86810   23.94488   24.02013   24.09903   24.17855   24.26248   24.30620   24.37418   24.46697   24.58390   24.72465   24.88993   25.07938   25.29145   25.52652   25.78311   26.06139   26.36329   26.68447   27.02662   27.38699   27.76917   28.16839   28.58580   29.02138
  62.00000   22.66065   22.66146   22.66413   22.66864   22.67500   22.68338   22.69345   22.70572   22.71933   22.73483   22.75257   22.77241   22.79379   22.81666   22.84248   22.87071   22.90033   22.93331   22.96777   23.00477   23.04359   23.08503   23.12858   23.17448   23.22293   23.27382   23.32647   23.38192   23.43920   23.49991   23.56365   23.62820   23.69538   23.76674   23.84023   23.91765   23.99350   24.07299   24.15288   24.23546   24.28013   24.34906   24.44267   24.56047   24.70210   24.86825   25.05862   25.27152   25.50747   25.76493   26.04409   26.34688   26.66895   27.01202   27.37334   27.75646   28.15667   28.57510   29.01175
  63.00000   22.61038   22.61121   22.61399   22.61867   22.62528   22.63397   22.64439   22.65709   22.67113   22.68714   22.70547   22.72592   22.74797   22.77151   22.79810   22.82719   22.85765   22.89152   22.92687   22.96478   23.00457   23.04692   23.09137   23.13818   23.18750   23.23927   23.29283   23.34917   23.40722   23.46873   23.53328   23.59851   23.66639   23.73837   23.81238   23.89041   23.96686   24.04689   24.12711   24.20830   24.25390   24.32375   24.41818   24.53682   24.67930   24.84630   25.03754   25.25126   25.48806   25.74635   26.02636   26.33003   26.65295   26.99690   27.35914   27.74317   28.14433   28.56376   29.00143
  64.00000   22.55977   22.56062   22.56351   22.56837   22.57523   22.58423   22.59502   22.60815   22.62265   22.63918   22.65811   22.67919   22.70192   22.72616   22.75355   22.78350   22.81483   22.84960   22.88586   22.92469   22.96549   23.00876   23.05414   23.10186   23.15207   23.20474   23.25922   23.31646   23.37528   23.43759   23.50294   23.56886   23.63743   23.71003   23.78455   23.86315   23.94018   24.02074   24.10126   24.18104   24.22754   24.29828   24.39350   24.51296   24.65626   24.82408   25.01617   25.23067   25.46828   25.72738   26.00821   26.31271   26.63647   26.98126   27.34439   27.72929   28.13136   28.55174   28.99039
  65.00000   22.50885   22.50973   22.51272   22.51776   22.52489   22.53421   22.54537   22.55895   22.57390   22.59097   22.61052   22.63223   22.65567   22.68062   22.70884   22.73966   22.77188   22.80755   22.84475   22.88451   22.92633   22.97054   23.01685   23.06551   23.11662   23.17021   23.22561   23.28375   23.34335   23.40647   23.47262   23.53923   23.60850   23.68169   23.75672   23.83588   23.91348   23.99454   24.07535   24.15371   24.20109   24.27270   24.36867   24.48892   24.63301   24.80161   24.99451   25.20976   25.44815   25.70803   25.98964   26.29493   26.61949   26.96509   27.32907   27.71479   28.11773   28.53902   28.97859
  66.00000   22.45767   22.45857   22.46167   22.46689   22.47429   22.48393   22.49547   22.50950   22.52493   22.54255   22.56271   22.58508   22.60923   22.63492   22.66396   22.69567   22.72879   22.76537   22.80351   22.84422   22.88707   22.93223   22.97950   23.02910   23.08112   23.13564   23.19197   23.25102   23.31142   23.37534   23.44228   23.50960   23.57956   23.65334   23.72887   23.80857   23.88675   23.96829   24.04937   24.12635   24.17458   24.24702   24.34371   24.46472   24.60957   24.77891   24.97258   25.18855   25.42767   25.68829   25.97064   26.27668   26.60200   26.94836   27.31315   27.69964   28.10341   28.52557   28.96601
  67.00000   22.40626   22.40719   22.41041   22.41581   22.42348   22.43344   22.44537   22.45985   22.47575   22.49392   22.51471   22.53775   22.56262   22.58905   22.61894   22.65154   22.68557   22.72305   22.76215   22.80381   22.84770   22.89382   22.94206   22.99260   23.04555   23.10100   23.15827   23.21823   23.27944   23.34417   23.41190   23.47994   23.55060   23.62496   23.70099   23.78122   23.85998   23.94200   24.02333   24.09901   24.14804   24.22128   24.31867   24.44040   24.58597   24.75601   24.95040   25.16703   25.40685   25.66816   25.95122   26.25796   26.58400   26.93106   27.29663   27.68383   28.08838   28.51135   28.95259
  68.00000   22.35469   22.35564   22.35897   22.36456   22.37250   22.38279   22.39511   22.41002   22.42640   22.44514   22.46656   22.49026   22.51586   22.54305   22.57379   22.60726   22.64222   22.68060   22.72065   22.76327   22.80820   22.85528   22.90449   22.95600   23.00989   23.06626   23.12448   23.18536   23.24738   23.31293   23.38144   23.45021   23.52158   23.59652   23.67306   23.75382   23.83317   23.91566   23.99725   24.07172   24.12152   24.19552   24.29356   24.41597   24.56222   24.73292   24.92798   25.14524   25.38570   25.64766   25.93138   26.23876   26.56547   26.91319   27.27949   27.66734   28.07260   28.49633   28.93831
  69.00000   22.30299   22.30397   22.30741   22.31319   22.32140   22.33200   22.34472   22.36007   22.37692   22.39622   22.41827   22.44263   22.46897   22.49692   22.52850   22.56286   22.59874   22.63799   22.67901   22.72257   22.76854   22.81659   22.86678   22.91925   22.97408   23.03140   23.09056   23.15236   23.21520   23.28157   23.35087   23.42039   23.49248   23.56799   23.64507   23.72634   23.80630   23.88927   23.97114   24.04453   24.09506   24.16977   24.26843   24.39147   24.53835   24.70966   24.90533   25.12316   25.36423   25.62678   25.91111   26.21908   26.54641   26.89473   27.26171   27.65014   28.05605   28.48048   28.92312
  70.00000   22.25122   22.25222   22.25578   22.26174   22.27022   22.28114   22.29424   22.31001   22.32734   22.34721   22.36987   22.39490   22.42196   22.45067   22.48311   22.51832   22.55512   22.59523   22.63721   22.68170   22.72871   22.77773   22.82889   22.88234   22.93811   22.99636   23.05647   23.11919   23.18288   23.25006   23.32015   23.39045   23.46327   23.53936   23.61699   23.69879   23.77938   23.86283   23.94499   24.01749   24.06870   24.14406   24.24330   24.36693   24.51439   24.68625   24.88248   25.10083   25.34243   25.60554   25.89042   26.19891   26.52681   26.87567   27.24326   27.63221   28.03871   28.46377   28.90699
  71.00000   22.19943   22.20046   22.20413   22.21028   22.21902   22.23024   22.24373   22.25991   22.27770   22.29813   22.32140   22.34708   22.37487   22.40434   22.43760   22.47366   22.51137   22.55231   22.59524   22.64065   22.68868   22.73866   22.79080   22.84521   22.90193   22.96112   23.02218   23.08581   23.15035   23.21836   23.28923   23.36034   23.43392   23.51059   23.58880   23.67113   23.75239   23.83635   23.91883   23.99063   24.04247   24.11845   24.21821   24.34237   24.49037   24.66271   24.85944   25.07825   25.32033   25.58392   25.86930   26.17825   26.50666   26.85598   27.22414   27.61352   28.02054   28.44615   28.88987
  72.00000   22.14769   22.14874   22.15251   22.15884   22.16785   22.17936   22.19322   22.20980   22.22804   22.24902   22.27288   22.29920   22.32769   22.35792   22.39201   22.42888   22.46749   22.50923   22.55309   22.59940   22.64842   22.69937   22.75248   22.80784   22.86551   22.92563   22.98764   23.05219   23.11759   23.18643   23.25809   23.33003   23.40439   23.48165   23.56048   23.64335   23.72532   23.80981   23.89265   23.96401   24.01643   24.09296   24.19320   24.31783   24.46630   24.63908   24.83622   25.05544   25.29794   25.56195   25.84775   26.15709   26.48595   26.83566   27.20432   27.59405   28.00151   28.42761   28.87173
  73.00000   22.09604   22.09711   22.10099   22.10750   22.11675   22.12855   22.14278   22.15972   22.17840   22.19991   22.22434   22.25128   22.28047   22.31144   22.34633   22.38399   22.42347   22.46596   22.51074   22.55792   22.60793   22.65981   22.71388   22.77020   22.82880   22.88985   22.95280   23.01826   23.08455   23.15421   23.22667   23.29948   23.37464   23.45251   23.53200   23.61544   23.69816   23.78321   23.86647   23.93768   23.99061   24.06763   24.16830   24.29334   24.44223   24.61537   24.81285   25.03241   25.27525   25.53962   25.82579   26.13543   26.46467   26.81470   27.18378   27.57378   27.98160   28.40809   28.85252
  74.00000   22.04455   22.04565   22.04962   22.05630   22.06579   22.07785   22.09243   22.10972   22.12883   22.15085   22.17582   22.20337   22.23323   22.26492   22.30058   22.33899   22.37932   22.42252   22.46819   22.51620   22.56715   22.61996   22.67497   22.73223   22.79177   22.85374   22.91763   22.98399   23.05117   23.12167   23.19492   23.26864   23.34463   23.42314   23.50334   23.58737   23.67090   23.75656   23.84028   23.91168   23.96506   24.04251   24.14354   24.26894   24.41817   24.59160   24.78935   25.00918   25.25228   25.51693   25.80340   26.11327   26.44281   26.79307   27.16251   27.55269   27.96077   28.38757   28.83219
  75.00000   21.99328   21.99440   21.99847   22.00531   22.01503   22.02733   22.04225   22.05984   22.07935   22.10188   22.12736   22.15548   22.18597   22.21837   22.25477   22.29388   22.33503   22.37887   22.42541   22.47421   22.52608   22.57979   22.63572   22.69391   22.75436   22.81724   22.88206   22.94932   23.01741   23.08875   23.16280   23.23746   23.31433   23.39349   23.47447   23.55911   23.64353   23.72983   23.81411   23.88606   23.93983   24.01764   24.11898   24.24466   24.39416   24.56780   24.76573   24.98575   25.22905   25.49391   25.78059   26.09059   26.42036   26.77077   27.14049   27.53073   27.93899   28.36601   28.81072
  76.00000   21.94230   21.94345   21.94760   21.95459   21.96453   21.97704   21.99228   22.01015   22.03003   22.05302   22.07898   22.10764   22.13874   22.17181   22.20892   22.24867   22.29059   22.33503   22.38239   22.43193   22.48467   22.53926   22.59609   22.65518   22.71654   22.78031   22.84605   22.91419   22.98321   23.05539   23.13025   23.20591   23.28369   23.36353   23.44535   23.53066   23.61602   23.70304   23.78795   23.86089   23.91496   23.99306   24.09463   24.22052   24.37022   24.54400   24.74202   24.96216   25.20556   25.47054   25.75735   26.06740   26.39732   26.74778   27.11769   27.50790   27.91624   28.34337   28.78804
  77.00000   21.89168   21.89284   21.89708   21.90421   21.91434   21.92704   21.94258   21.96068   21.98090   22.00434   22.03073   22.05988   22.09155   22.12526   22.16303   22.20336   22.24602   22.29097   22.33911   22.38934   22.44290   22.49833   22.55603   22.61600   22.67825   22.74289   22.80954   22.87856   22.94851   23.02155   23.09722   23.17393   23.25266   23.33322   23.41596   23.50197   23.58837   23.67617   23.76181   23.83620   23.89051   23.96881   24.07056   24.19658   24.34640   24.52023   24.71824   24.93840   25.18182   25.44684   25.73370   26.04369   26.37367   26.72408   27.09409   27.48416   27.89247   28.31961   28.76412
  78.00000   21.84148   21.84266   21.84697   21.85422   21.86453   21.87740   21.89320   21.91149   21.93202   21.95586   21.98264   22.01225   22.04444   22.07875   22.11713   22.15796   22.20130   22.24669   22.29556   22.34641   22.40073   22.45696   22.51550   22.57633   22.63944   22.70494   22.77248   22.84237   22.91327   22.98716   23.06366   23.14147   23.22120   23.30251   23.38626   23.47303   23.56056   23.64922   23.73569   23.81206   23.86653   23.94495   24.04679   24.17286   24.32272   24.49650   24.69440   24.91450   25.15784   25.42281   25.70962   26.01945   26.34941   26.69966   27.06969   27.45950   27.86766   28.29470   28.73891
  79.00000   21.79178   21.79298   21.79735   21.80472   21.81518   21.82817   21.84421   21.86264   21.88344   21.90764   21.93475   21.96476   21.99741   22.03228   22.07121   22.11248   22.15643   22.20216   22.25171   22.30311   22.35814   22.41512   22.47446   22.53611   22.60006   22.66639   22.73481   22.80554   22.87741   22.95216   23.02949   23.10847   23.18926   23.27137   23.35622   23.44381   23.53257   23.62217   23.70961   23.78852   23.84306   23.92151   24.02338   24.14941   24.29921   24.47285   24.67054   24.89048   25.13364   25.39846   25.68513   25.99469   26.32453   26.67451   27.04444   27.43387   27.84177   28.26858   28.71236
  80.00000   21.74266   21.74388   21.74830   21.75575   21.76634   21.77943   21.79567   21.81418   21.83520   21.85971   21.88709   21.91745   21.95051   21.98589   22.02530   22.06691   22.11142   22.15739   22.20755   22.25942   22.31508   22.37277   22.43287   22.49530   22.56005   22.62718   22.69646   22.76803   22.84088   22.91650   22.99468   23.07488   23.15679   23.23975   23.32579   23.41428   23.50438   23.59502   23.68356   23.76565   23.82016   23.89855   24.00036   24.12626   24.27591   24.44931   24.64666   24.86636   25.10923   25.37379   25.66022   25.96939   26.29900   26.64861   27.01834   27.40725   27.81476   28.24124   28.68443
  81.00000   21.69419   21.69542   21.69987   21.70741   21.71810   21.73123   21.74764   21.76617   21.78736   21.81214   21.83972   21.87036   21.90376   21.93958   21.97940   22.02126   22.06624   22.11236   22.16305   22.21531   22.27151   22.32986   22.39066   22.45384   22.51936   22.58726   22.65738   22.72976   22.80361   22.88010   22.95914   23.04064   23.12372   23.20759   23.29495   23.38440   23.47597   23.56776   23.65756   23.74349   23.79788   23.87611   23.97777   24.10345   24.25285   24.42590   24.62280   24.84214   25.08462   25.34882   25.63490   25.94356   26.27284   26.62193   26.99136   27.37962   27.78662   28.21261   28.65507
  82.00000   21.64645   21.64769   21.65217   21.65976   21.67051   21.68365   21.70018   21.71867   21.73998   21.76496   21.79267   21.82352   21.85719   21.89339   21.93354   21.97554   22.02091   22.06705   22.11820   22.17075   22.22741   22.28634   22.34779   22.41167   22.47792   22.54657   22.61749   22.69067   22.76553   22.84290   22.92281   23.00569   23.09002   23.17485   23.26366   23.35415   23.44733   23.54039   23.63160   23.72211   23.77629   23.85424   23.95567   24.08102   24.23007   24.40265   24.59898   24.81786   25.05983   25.32355   25.60916   25.91719   26.24602   26.59448   26.96349   27.35095   27.75729   28.18267   28.62422
  83.00000   21.59952   21.60077   21.60526   21.61288   21.62367   21.63676   21.65337   21.67174   21.69310   21.71823   21.74598   21.77696   21.81082   21.84734   21.88772   21.92974   21.97542   22.02145   22.07297   22.12571   22.18273   22.24218   22.30422   22.36875   22.43568   22.50503   22.57673   22.65068   22.72658   22.80483   22.88563   22.96996   23.05561   23.14148   23.23186   23.32350   23.41842   23.51288   23.60569   23.70157   23.75542   23.83300   23.93410   24.05902   24.20761   24.37961   24.57523   24.79352   25.03486   25.29799   25.58301   25.89027   26.21854   26.56623   26.93469   27.32120   27.72674   28.15137   28.59183
  84.00000   21.55349   21.55474   21.55922   21.56686   21.57764   21.59063   21.60726   21.62545   21.64679   21.67199   21.69970   21.73073   21.76469   21.80144   21.84196   21.88388   21.92975   21.97555   22.02735   22.08015   22.13742   22.19732   22.25988   22.32500   22.39257   22.46258   22.53504   22.60972   22.68667   22.76582   22.84752   22.93340   23.02045   23.10743   23.19952   23.29240   23.38923   23.48523   23.57983   23.68193   23.73535   23.81243   23.91311   24.03748   24.18550   24.35679   24.55156   24.76916   25.00973   25.27215   25.55645   25.86280   26.19039   26.53716   26.90495   27.29035   27.69495   28.11866   28.55787
  85.00000   21.50844   21.50970   21.51415   21.52177   21.53251   21.54533   21.56194   21.57985   21.60111   21.62630   21.65388   21.68487   21.71882   21.75572   21.79628   21.83796   21.88392   21.92933   21.98129   22.03404   22.09146   22.15172   22.21473   22.28037   22.34853   22.41915   22.49232   22.56773   22.64574   22.72579   22.80841   22.89592   22.98446   23.07263   23.16659   23.26083   23.35973   23.45742   23.55404   23.66326   23.71612   23.79259   23.89274   24.01645   24.16377   24.33422   24.52801   24.74478   24.98445   25.24602   25.52949   25.83477   26.16155   26.50726   26.87424   27.25838   27.66186   28.08450   28.52226
  86.00000   21.46447   21.46572   21.47013   21.47770   21.48835   21.50096   21.51747   21.53501   21.55611   21.58122   21.60856   21.63940   21.67325   21.71020   21.75068   21.79198   21.83791   21.88277   21.93479   21.98735   22.04479   22.10532   22.16869   22.23480   22.30349   22.37467   22.44852   22.52461   22.60371   22.68466   22.76823   22.85747   22.94758   23.03703   23.13303   23.22875   23.32990   23.42945   23.52830   23.64562   23.69780   23.77353   23.87305   23.99597   24.14247   24.31195   24.50460   24.72041   24.95905   25.21964   25.50212   25.80619   26.13202   26.47651   26.84254   27.22524   27.62745   28.04886   28.48497
  87.00000   21.42166   21.42291   21.42725   21.43474   21.44526   21.45757   21.47394   21.49101   21.51186   21.53680   21.56378   21.59438   21.62801   21.66491   21.70518   21.74594   21.79171   21.83586   21.88782   21.94004   21.99736   22.05807   22.12173   22.18822   22.25737   22.32907   22.40355   22.48029   22.56049   22.64236   22.72689   22.81796   22.90975   23.00057   23.09879   23.19611   23.29971   23.40130   23.50263   23.62908   23.68046   23.75531   23.85408   23.97610   24.12164   24.29001   24.48135   24.69607   24.93352   25.19299   25.47435   25.77705   26.10179   26.44490   26.80984   27.19091   27.59167   28.01167   28.44594
  88.00000   21.38011   21.38134   21.38560   21.39298   21.40331   21.41526   21.43140   21.44791   21.46843   21.49310   21.51961   21.54984   21.58313   21.61986   21.65980   21.69986   21.74532   21.78858   21.84034   21.89208   21.94914   22.00992   22.07376   22.14057   22.21011   22.28226   22.35734   22.43470   22.51602   22.59880   22.68432   22.77733   22.87090   22.96319   23.06382   23.16288   23.26913   23.37295   23.47703   23.61371   23.66415   23.73799   23.83590   23.95686   24.10132   24.26842   24.45830   24.67178   24.90790   25.16609   25.44619   25.74734   26.07084   26.41241   26.77610   27.15536   27.55450   27.97291   28.40511
  89.00000   21.33991   21.34113   21.34528   21.35251   21.36260   21.37411   21.38996   21.40578   21.42587   21.45017   21.47608   21.50582   21.53864   21.57510   21.61455   21.65372   21.69874   21.74091   21.79234   21.84343   21.90008   21.96081   22.02474   22.09178   22.16164   22.23417   22.30979   22.38773   22.47019   22.55390   22.64044   22.73550   22.83096   22.92483   23.02806   23.12902   23.23814   23.34440   23.45150   23.59957   23.64893   23.72162   23.81854   23.93832   24.08154   24.24723   24.43547   24.64757   24.88219   25.13895   25.41762   25.71706   26.03918   26.37902   26.74130   27.11856   27.51588   27.93251   28.36242
