time [s] 	  Ts [K] 
   -0.10	 2272.67
   -0.05	 2333.27
    0.00	 2363.57
    0.05	 2421.14
    0.10	 2504.97
    0.14	 2519.11
    0.19	 2530.22
    0.24	 2539.31
    0.29	 2549.41
    0.34	 2545.37
    0.39	 2559.51
    0.43	 2561.53
    0.48	 2569.61
    0.53	 2573.65
    0.58	 2577.69
    0.63	 2580.72
    0.67	 2586.78
    0.72	 2587.79
    0.77	 2597.89
    0.82	 2597.89
    0.87	 2593.85
    0.92	 2612.03
    0.96	 2604.96
    1.01	 2613.04
    1.06	 2613.04
    1.11	 2622.13
    1.16	 2624.15
    1.20	 2623.14
    1.25	 2633.24
    1.30	 2630.21
    1.35	 2631.22
    1.40	 2632.23
    1.45	 2639.30
    1.49	 2638.29
    1.54	 2642.33
    1.59	 2647.38
    1.64	 2643.34
    1.69	 2648.39
    1.73	 2655.46
    1.78	 2651.42
    1.83	 2660.51
    1.88	 2658.49
    1.93	 2660.51
    1.98	 2660.51
    2.02	 2660.51
    2.07	 2665.56
    2.12	 2667.58
    2.17	 2668.59
    2.22	 2670.61
    2.27	 2670.61
    2.31	 2676.67
    2.36	 2678.69
    2.41	 2683.74
    2.46	 2680.71
    2.51	 2685.76
    2.55	 2684.75
    2.60	 2685.76
    2.65	 2685.76
    2.70	 2687.78
    2.75	 2690.81
    2.80	 2691.82
    2.84	 2692.83
    2.89	 2693.84
    2.94	 2695.86
    2.99	 2702.93
    3.04	 2696.87
    3.08	 2701.92
    3.13	 2700.91
    3.18	 2701.92
    3.23	 2703.94
    3.28	 2703.94
    3.33	 2711.01
    3.37	 2707.98
    3.42	 2707.98
    3.47	 2708.99
    3.52	 2711.01
    3.57	 2712.02
    3.61	 2718.08
    3.66	 2717.07
    3.71	 2715.05
    3.76	 2714.04
    3.81	 2722.12
    3.86	 2717.07
    3.90	 2719.09
    3.95	 2718.08
    4.00	 2718.08
    4.05	 2722.12
    4.10	 2724.14
    4.14	 2728.18
    4.19	 2730.20
    4.24	 2722.12
    4.29	 2727.17
    4.34	 2718.08
    4.39	 2731.21
    4.43	 2728.18
    4.48	 2725.15
    4.53	 2728.18
    4.58	 2727.17
    4.63	 2730.20
    4.67	 2733.23
    4.72	 2732.22
    4.77	 2735.25
    4.82	 2729.19
    4.87	 2730.20
    4.92	 2734.24
    4.96	 2730.20
    5.01	 2733.23
    5.06	 2739.29
    5.11	 2738.28
    5.16	 2738.28
    5.20	 2733.23
    5.25	 2737.27
    5.30	 2737.27
    5.35	 2738.28
    5.40	 2743.33
    5.45	 2735.25
    5.49	 2740.30
    5.54	 2737.27
    5.59	 2743.33
    5.64	 2737.27
    5.69	 2742.32
    5.73	 2740.30
    5.78	 2739.29
    5.83	 2741.31
    5.88	 2741.31
    5.93	 2743.33
    5.98	 2742.32
    6.02	 2742.32
    6.07	 2743.33
    6.12	 2742.32
    6.17	 2743.33
    6.22	 2742.32
    6.27	 2743.33
    6.31	 2747.37
    6.36	 2743.33
    6.41	 2744.34
    6.46	 2744.34
    6.51	 2744.34
    6.55	 2744.34
    6.60	 2746.36
    6.65	 2745.35
    6.70	 2751.41
    6.75	 2743.33
    6.80	 2753.43
    6.84	 2744.34
    6.89	 2746.36
    6.94	 2748.38
    6.99	 2746.36
    7.04	 2751.41
    7.08	 2747.37
    7.13	 2754.44
    7.18	 2749.39
    7.23	 2749.39
    7.28	 2747.37
    7.33	 2748.38
    7.37	 2748.38
    7.42	 2747.37
    7.47	 2753.43
    7.52	 2752.42
    7.57	 2748.38
    7.61	 2747.37
    7.66	 2749.39
    7.71	 2755.45
    7.76	 2752.42
    7.81	 2736.26
    7.86	 2740.30
    7.90	 2739.29
    7.95	 2748.38
    8.00	 2741.31
    8.05	 2734.24
    8.10	 2737.27
    8.14	 2746.36
    8.19	 2737.27
    8.24	 2731.21
    8.29	 2737.27
    8.34	 2733.23
    8.39	 2741.31
    8.43	 2737.27
    8.48	 2736.26
    8.53	 2724.14
    8.58	 2723.13
    8.63	 2723.13
    8.67	 2724.14
    8.72	 2723.13
    8.77	 2711.01
    8.82	 2693.84
    8.87	 2686.77
    8.92	 2685.76
    8.96	 2719.09
    9.01	 2711.01
    9.06	 2716.06
    9.11	 2726.16
    9.16	 2735.25
    9.20	 2747.37
    9.25	 2762.52
    9.30	 2767.57
    9.35	 2786.76
    9.40	 2778.68
    9.45	 2786.76
    9.49	 2791.81
    9.54	 2784.74
    9.59	 2793.83
    9.64	 2784.74
    9.69	 2784.74
    9.73	 2793.83
    9.78	 2764.54
    9.83	 2788.78
    9.88	 2777.67
    9.93	 2786.76
    9.98	 2776.66
   10.02	 2778.68
   10.07	 2769.59
   10.12	 2764.54
   10.17	 2752.42
   10.22	 2770.60
   10.27	 2778.68
   10.31	 2774.64
   10.36	 2793.83
   10.41	 2798.88
   10.46	 2786.76
   10.51	 2776.66
   10.55	 2773.63
   10.60	 2758.48
   10.65	 2758.48
   10.70	 2759.49
   10.75	 2761.51
   10.80	 2759.49
   10.84	 2756.46
   10.89	 2729.19
   10.94	 2716.06
   10.99	 2700.91
   11.04	 2678.69
   11.08	 2683.74
   11.13	 2693.84
   11.18	 2693.84
   11.23	 2697.88
   11.28	 2698.89
   11.33	 2653.44
   11.37	 2623.14
   11.42	 2543.35
   11.47	 2540.32
   11.52	 2540.32
   11.57	 2554.46
   11.61	 2565.57
   11.66	 2569.61
   11.71	 2597.89
   11.76	 2677.68
   11.81	 2658.49
   11.86	 2704.95
   11.90	 2760.50
   11.95	 2814.03
   12.00	 2775.65
   12.05	 2762.52
   12.10	 2757.47
   12.14	 2779.69
   12.19	 2798.88
   12.24	 2767.57
   12.29	 2788.78
   12.34	 2804.94
   12.39	 2783.73
   12.43	 2786.76
   12.48	 2807.97
   12.53	 2773.63
   12.58	 2748.38
   12.63	 2768.58
   12.67	 2766.56
   12.72	 2756.46
   12.77	 2761.51
   12.82	 2767.57
   12.87	 2762.52
   12.92	 2762.52
   12.96	 2760.50
   13.01	 2762.52
   13.06	 2761.51
   13.11	 2761.51
   13.16	 2761.51
   13.20	 2760.50
   13.25	 2761.51
   13.30	 2763.53
   13.35	 2759.49
   13.40	 2760.50
   13.45	 2760.50
   13.49	 2759.49
   13.54	 2766.56
   13.59	 2759.49
   13.64	 2762.52
   13.69	 2758.48
   13.73	 2755.45
   13.78	 2761.51
   13.83	 2761.51
   13.88	 2761.51
   13.93	 2760.50
   13.98	 2760.50
   14.02	 2759.49
   14.07	 2758.48
   14.12	 2759.49
   14.17	 2757.47
   14.22	 2758.48
   14.27	 2757.47
   14.31	 2758.48
   14.36	 2758.48
   14.41	 2758.48
   14.46	 2758.48
   14.51	 2757.47
   14.55	 2757.47
   14.60	 2759.49
   14.65	 2757.47
   14.70	 2756.46
   14.75	 2762.52
   14.80	 2757.47
   14.84	 2748.38
   14.89	 2757.47
   14.94	 2757.47
   14.99	 2757.47
   15.04	 2756.46
   15.08	 2761.51
   15.13	 2755.45
   15.18	 2752.42
   15.23	 2758.48
   15.28	 2756.46
   15.33	 2754.44
   15.37	 2760.50
   15.42	 2752.42
   15.47	 2758.48
   15.52	 2750.40
   15.57	 2757.47
   15.61	 2754.44
   15.66	 2754.44
   15.71	 2756.46
   15.76	 2760.50
   15.81	 2754.44
   15.86	 2752.42
   15.90	 2756.46
   15.95	 2754.44
   16.00	 2754.44
   16.05	 2750.40
   16.10	 2753.43
   16.14	 2753.43
   16.19	 2754.44
   16.24	 2753.43
   16.29	 2754.44
   16.34	 2753.43
   16.39	 2748.38
   16.43	 2752.42
   16.48	 2751.41
   16.53	 2754.44
   16.58	 2752.42
   16.63	 2752.42
   16.67	 2752.42
   16.72	 2750.40
   16.77	 2755.45
   16.82	 2753.43
   16.87	 2749.39
   16.92	 2751.41
   16.96	 2752.42
   17.01	 2752.42
   17.06	 2751.41
   17.11	 2751.41
   17.16	 2751.41
   17.20	 2752.42
   17.25	 2752.42
   17.30	 2751.41
   17.35	 2751.41
   17.40	 2751.41
   17.45	 2751.41
   17.49	 2751.41
   17.54	 2751.41
   17.59	 2744.34
   17.64	 2749.39
   17.69	 2754.44
   17.73	 2756.46
   17.78	 2754.44
   17.83	 2745.35
   17.88	 2756.46
   17.93	 2752.42
   17.98	 2753.43
   18.02	 2752.42
   18.07	 2746.36
   18.12	 2752.42
   18.17	 2748.38
   18.22	 2752.42
   18.27	 2751.41
   18.31	 2748.38
   18.36	 2750.40
   18.41	 2749.39
   18.46	 2751.41
   18.51	 2745.35
   18.55	 2748.38
   18.60	 2748.38
   18.65	 2743.33
   18.70	 2755.45
   18.75	 2747.37
   18.80	 2746.36
   18.84	 2748.38
   18.89	 2749.39
   18.94	 2749.39
   18.99	 2750.40
   19.04	 2749.39
   19.08	 2747.37
   19.13	 2752.42
   19.18	 2746.36
   19.23	 2742.32
   19.28	 2754.44
   19.33	 2748.38
   19.37	 2749.39
   19.42	 2749.39
   19.47	 2749.39
   19.52	 2751.41
   19.57	 2748.38
   19.61	 2750.40
   19.66	 2746.36
   19.71	 2751.41
   19.76	 2747.37
   19.81	 2748.38
   19.86	 2740.30
   19.90	 2744.34
   19.95	 2747.37
   20.00	 2727.17
   20.05	 2228.23
   20.10	 2097.94
   20.14	 2014.11
   20.19	 1946.44
   20.24	 1913.11
   20.29	 1873.72
   20.34	 1845.44
   20.39	 1822.21
   20.43	 1797.97
   20.48	 1781.81
   20.53	 1757.57
   20.58	 1745.45
   20.63	 1727.27
   20.67	 1709.09
   20.72	 1688.89
   20.77	 1676.77
   20.82	 1657.58
   20.87	 1644.45
   20.92	 1626.27
   20.96	 1616.17
   21.01	 1607.08
   21.06	 1595.97
   21.11	 1583.85
   21.16	 1574.76
   21.20	 1564.66
   21.25	 1554.56
   21.30	 1544.46
   21.35	 1534.36
   21.40	 1524.26
   21.45	 1521.23
   21.49	 1513.15
   21.54	 1504.06
   21.59	 1494.97
   21.64	 1484.87
   21.69	 1481.84
   21.73	 1474.77
   21.78	 1469.72
   21.83	 1459.62
   21.88	 1449.52
   21.93	 1446.49
   21.98	 1437.40
   22.02	 1435.38
   22.07	 1426.29
   22.12	 1417.20
   22.17	 1416.19
   22.22	 1412.15
   22.27	 1399.02
   22.31	 1399.02
   22.36	 1394.98
   22.41	 1387.91
   22.46	 1384.88
   22.51	 1378.82
   22.55	 1374.78
   22.60	 1366.70
   22.65	 1364.68
   22.70	 1360.64
   22.75	 1351.55
   22.80	 1349.53
   22.84	 1345.49
   22.89	 1339.43
   22.94	 1337.41
   22.99	 1333.37
   23.04	 1326.30
   23.08	 1325.29
   23.13	 1317.21
   23.18	 1317.21
   23.23	 1313.17
   23.28	 1307.11
   23.33	 1305.09
   23.37	 1301.05
   23.42	 1284.89
   23.47	 1279.84
   23.52	 1274.79
   23.57	 1271.76
   23.61	 1268.73
   23.66	 1265.70
   23.71	 1263.68
