time [s] 	  Ts [K] 
    3.97	 1263.68
    4.03	 1279.84
    4.10	 1267.72
    4.23	 1288.93
    4.30	 1282.87
    4.36	 1298.02
    4.43	 1264.69
    4.70	 1270.75
    4.83	 1265.70
    4.89	 1281.86
    4.96	 1289.94
    5.03	 1303.07
    5.09	 1273.78
    5.16	 1320.24
    5.22	 1277.82
    5.36	 1271.76
    5.42	 1288.93
    5.49	 1276.81
    5.55	 1298.02
    5.62	 1333.37
    5.69	 1324.28
    5.75	 1320.24
    5.82	 1320.24
    5.89	 1298.02
    5.95	 1326.30
    6.02	 1319.23
    6.08	 1314.18
    6.15	 1341.45
    6.22	 1329.33
    6.28	 1329.33
    6.35	 1355.59
    6.41	 1335.39
    6.48	 1351.55
    6.55	 1332.36
    6.61	 1335.39
    6.68	 1334.38
    6.75	 1338.42
    6.81	 1387.91
    6.88	 1342.46
    6.94	 1382.86
    7.01	 1351.55
    7.08	 1340.44
    7.14	 1337.41
    7.21	 1310.14
    7.27	 1353.57
    7.34	 1339.43
    7.41	 1338.42
    7.47	 1354.58
    7.54	 1333.37
    7.60	 1341.45
    7.67	 1340.44
    7.74	 1368.72
    7.80	 1354.58
    7.87	 1357.61
    7.94	 1389.93
    8.00	 1383.87
    8.07	 1374.78
    8.13	 1365.69
    8.20	 1360.64
    8.27	 1380.84
    8.33	 1395.99
    8.40	 1379.83
    8.46	 1370.74
    8.53	 1362.66
    8.60	 1383.87
    8.66	 1401.04
    8.73	 1392.96
    8.80	 1352.56
    8.86	 1406.09
    8.93	 1414.17
    8.99	 1401.04
    9.06	 1394.98
    9.13	 1394.98
    9.19	 1372.76
    9.26	 1411.14
    9.32	 1380.84
    9.39	 1382.86
    9.46	 1384.88
    9.52	 1378.82
    9.59	 1391.95
    9.65	 1388.92
    9.72	 1374.78
    9.79	 1384.88
    9.85	 1418.21
    9.92	 1426.29
    9.99	 1395.99
   10.05	 1415.18
   10.12	 1418.21
   10.18	 1389.93
   10.25	 1402.05
   10.32	 1405.08
   10.38	 1423.26
   10.45	 1422.25
   10.51	 1410.13
   10.58	 1439.42
   10.65	 1420.23
   10.71	 1431.34
   10.78	 1436.39
   10.85	 1407.10
   10.91	 1436.39
   10.98	 1423.26
   11.04	 1431.34
   11.11	 1430.33
   11.18	 1431.34
   11.24	 1456.59
   11.31	 1401.04
   11.37	 1419.22
   11.44	 1406.09
   11.51	 1413.16
   11.57	 1416.19
   11.64	 1414.17
   11.70	 1431.34
   11.77	 1397.00
   11.84	 1413.16
   11.90	 1459.62
   11.97	 1414.17
   12.04	 1444.47
   12.10	 1459.62
   12.17	 1424.27
   12.23	 1473.76
   12.30	 1449.52
   12.37	 1432.35
   12.43	 1419.22
   12.50	 1463.66
   12.56	 1450.53
   12.63	 1438.41
   12.70	 1451.54
   12.76	 1447.50
   12.83	 1418.21
   12.90	 1470.73
   12.96	 1431.34
   13.03	 1423.26
   13.09	 1434.37
   13.16	 1436.39
   13.23	 1417.20
   13.29	 1435.38
   13.36	 1434.37
   13.42	 1443.46
   13.49	 1445.48
   13.56	 1455.58
   13.62	 1449.52
   13.69	 1428.31
   13.75	 1419.22
   13.82	 1429.32
   13.89	 1449.52
   13.95	 1421.24
   14.02	 1438.41
   14.09	 1469.72
   14.15	 1441.44
   14.22	 1440.43
   14.28	 1443.46
   14.35	 1461.64
   14.42	 1401.04
   14.48	 1419.22
   14.55	 1434.37
   14.61	 1437.40
   14.68	 1478.81
   14.75	 1443.46
   14.81	 1431.34
   14.88	 1450.53
   14.95	 1420.23
   15.01	 1428.31
   15.08	 1459.62
   15.14	 1449.52
   15.21	 1449.52
   15.28	 1418.21
   15.34	 1442.45
   15.41	 1443.46
   15.47	 1410.13
   15.54	 1430.33
   15.61	 1440.43
   15.67	 1415.18
   15.74	 1468.71
   15.81	 1434.37
   15.87	 1490.93
   15.94	 1440.43
   16.00	 1425.28
   16.07	 1441.44
   16.14	 1446.49
   16.20	 1444.47
   16.27	 1444.47
   16.33	 1453.56
   16.40	 1448.51
   16.47	 1438.41
   16.53	 1468.71
   16.60	 1431.34
   16.66	 1408.11
   16.73	 1456.59
   16.80	 1431.34
   16.86	 1448.51
   16.93	 1424.27
   17.00	 1423.26
   17.06	 1425.28
   17.13	 1420.23
   17.19	 1453.56
   17.26	 1429.32
   17.33	 1442.45
   17.39	 1444.47
   17.46	 1418.21
   17.52	 1447.50
   17.59	 1425.28
   17.66	 1443.46
   17.72	 1448.51
   17.79	 1444.47
   17.86	 1464.67
   17.92	 1425.28
   17.99	 1424.27
   18.05	 1434.37
   18.12	 1420.23
   18.19	 1449.52
   18.25	 1440.43
   18.32	 1456.59
   18.38	 1442.45
   18.45	 1432.35
   18.52	 1440.43
   18.58	 1443.46
   18.65	 1481.84
   18.71	 1476.79
   18.78	 1434.37
   18.85	 1462.65
   18.91	 1441.44
   18.98	 1419.22
   19.05	 1433.36
   19.11	 1431.34
   19.18	 1446.49
   19.24	 1453.56
   19.31	 1446.49
   19.38	 1475.78
   19.44	 1467.70
   19.51	 1462.65
   19.57	 1472.75
   19.64	 1467.70
   19.71	 1504.06
   19.77	 1483.86
   19.84	 1473.76
   19.91	 1465.68
   19.97	 1481.84
   20.04	 1495.98
   20.10	 1477.80
   20.17	 1502.04
   20.24	 1486.89
   20.30	 1462.65
   20.37	 1459.62
   20.43	 1446.49
   20.50	 1481.84
   20.57	 1459.62
   20.63	 1469.72
   20.70	 1490.93
   20.76	 1464.67
   20.83	 1452.55
   20.90	 1466.69
   20.96	 1453.56
   21.03	 1480.83
   21.10	 1456.59
   21.16	 1491.94
   21.23	 1478.81
   21.29	 1479.82
   21.36	 1485.88
   21.43	 1473.76
   21.49	 1477.80
   21.56	 1488.91
   21.62	 1461.64
   21.69	 1475.78
   21.76	 1451.54
   21.82	 1486.89
   21.89	 1463.66
   21.96	 1461.64
   22.02	 1479.82
   22.09	 1463.66
   22.15	 1490.93
   22.22	 1468.71
   22.29	 1489.92
   22.35	 1477.80
   22.42	 1470.73
   22.48	 1489.92
   22.55	 1491.94
   22.62	 1495.98
   22.68	 1508.10
   22.75	 1471.74
   22.81	 1461.64
   22.88	 1499.01
   22.95	 1463.66
   23.01	 1463.66
   23.08	 1459.62
   23.15	 1465.68
   23.21	 1444.47
   23.28	 1459.62
   23.34	 1456.59
   23.41	 1454.57
   23.48	 1487.90
   23.54	 1501.03
   23.61	 1481.84
   23.67	 1489.92
   23.74	 1468.71
   23.81	 1483.86
   23.87	 1483.86
   23.94	 1472.75
   24.01	 1504.06
   24.07	 1470.73
   24.14	 1489.92
   24.20	 1491.94
   24.27	 1476.79
   24.34	 1473.76
   24.40	 1477.80
   24.47	 1471.74
   24.53	 1455.58
   24.60	 1479.82
   24.67	 1499.01
   24.73	 1489.92
   24.80	 1509.11
   24.86	 1478.81
   24.93	 1475.78
   25.00	 1486.89
   25.06	 1471.74
   25.13	 1492.95
   25.20	 1472.75
   25.26	 1461.64
   25.33	 1489.92
   25.39	 1481.84
   25.46	 1483.86
   25.53	 1475.78
   25.59	 1468.71
   25.66	 1470.73
   25.72	 1468.71
   25.79	 1471.74
   25.86	 1464.67
   25.92	 1450.53
   25.99	 1481.84
   26.06	 1470.73
   26.12	 1484.87
   26.19	 1516.18
   26.25	 1491.94
   26.32	 1493.96
   26.39	 1490.93
   26.45	 1505.07
   26.52	 1509.11
   26.58	 1493.96
   26.65	 1512.14
   26.72	 1494.97
   26.78	 1512.14
   26.85	 1519.21
   26.91	 1522.24
   26.98	 1517.19
   27.05	 1501.03
   27.11	 1509.11
   27.18	 1495.98
   27.25	 1479.82
   27.31	 1509.11
   27.38	 1472.75
   27.44	 1502.04
   27.51	 1483.86
   27.58	 1471.74
   27.64	 1466.69
   27.71	 1476.79
   27.77	 1454.57
   27.84	 1469.72
   27.91	 1438.41
   27.97	 1475.78
   28.04	 1455.58
   28.11	 1489.92
   28.17	 1471.74
   28.24	 1478.81
   28.30	 1504.06
   28.37	 1465.68
   28.44	 1467.70
   28.50	 1502.04
   28.57	 1469.72
   28.63	 1515.17
   28.70	 1476.79
   28.77	 1494.97
   28.83	 1502.04
   28.90	 1494.97
   28.96	 1507.09
   29.03	 1504.06
   29.10	 1500.02
   29.16	 1493.96
   29.23	 1502.04
   29.30	 1517.19
   29.36	 1484.87
   29.43	 1495.98
   29.49	 1493.96
   29.56	 1474.77
   29.63	 1495.98
   29.69	 1470.73
   29.76	 1493.96
   29.82	 1494.97
   29.89	 1490.93
   29.96	 1515.17
   30.02	 1500.02
   30.09	 1499.01
   30.16	 1505.07
   30.22	 1485.88
   30.29	 1510.12
   30.35	 1488.91
   30.42	 1512.14
   30.49	 1474.77
   30.55	 1479.82
   30.62	 1490.93
   30.68	 1468.71
   30.75	 1461.64
   30.82	 1512.14
   30.88	 1507.09
   30.95	 1529.31
   31.01	 1509.11
   31.08	 1512.14
   31.15	 1506.08
   31.21	 1499.01
   31.28	 1499.01
   31.35	 1506.08
   31.41	 1507.09
   31.48	 1494.97
   31.54	 1500.02
   31.61	 1519.21
   31.68	 1526.28
   31.74	 1522.24
   31.81	 1486.89
   31.87	 1473.76
   31.94	 1502.04
   32.01	 1484.87
   32.07	 1482.85
   32.14	 1507.09
   32.21	 1495.98
   32.27	 1483.86
   32.34	 1489.92
   32.40	 1475.78
   32.47	 1506.08
   32.54	 1503.05
   32.60	 1509.11
   32.67	 1491.94
   32.73	 1499.01
   32.80	 1517.19
   32.87	 1486.89
   32.93	 1498.00
   33.00	 1491.94
   33.06	 1519.21
   33.13	 1517.19
   33.20	 1491.94
   33.26	 1519.21
   33.33	 1533.35
   33.40	 1510.12
   33.46	 1490.93
   33.53	 1500.02
   33.59	 1484.87
   33.66	 1495.98
   33.73	 1512.14
   33.79	 1512.14
   33.86	 1486.89
   33.92	 1512.14
   33.99	 1499.01
   34.06	 1507.09
   34.12	 1521.23
   34.19	 1510.12
   34.26	 1542.44
   34.32	 1517.19
   34.39	 1519.21
   34.45	 1529.31
   34.52	 1535.37
   34.59	 1522.24
   34.65	 1514.16
   34.72	 1524.26
   34.78	 1526.28
   34.85	 1512.14
   34.92	 1552.54
   34.98	 1505.07
   35.05	 1524.26
   35.11	 1514.16
   35.18	 1502.04
   35.25	 1528.30
   35.31	 1494.97
   35.38	 1495.98
   35.45	 1520.22
   35.51	 1514.16
   35.58	 1492.95
   35.64	 1490.93
   35.71	 1493.96
   35.78	 1504.06
   35.84	 1470.73
   35.91	 1509.11
   35.97	 1479.82
   36.04	 1494.97
   36.11	 1501.03
   36.17	 1500.02
   36.24	 1493.96
   36.31	 1509.11
   36.37	 1505.07
   36.44	 1471.74
   36.50	 1493.96
   36.57	 1496.99
   36.64	 1475.78
   36.70	 1508.10
   36.77	 1524.26
   36.83	 1511.13
   36.90	 1522.24
   36.97	 1530.32
   37.03	 1524.26
   37.10	 1525.27
   37.16	 1525.27
   37.23	 1522.24
   37.30	 1502.04
   37.36	 1484.87
   37.43	 1507.09
   37.50	 1476.79
   37.56	 1509.11
   37.63	 1479.82
   37.69	 1502.04
   37.76	 1511.13
   37.83	 1532.34
   37.89	 1523.25
   37.96	 1505.07
   38.02	 1502.04
   38.09	 1501.03
   38.16	 1515.17
   38.22	 1501.03
   38.29	 1532.34
   38.36	 1522.24
   38.42	 1521.23
   38.49	 1537.39
   38.55	 1515.17
   38.62	 1513.15
   38.69	 1526.28
   38.75	 1506.08
   38.82	 1534.36
   38.88	 1508.10
   38.95	 1507.09
   39.02	 1510.12
   39.08	 1511.13
   39.15	 1524.26
   39.21	 1493.96
   39.28	 1506.08
   39.35	 1515.17
   39.41	 1508.10
   39.48	 1556.58
   39.55	 1511.13
   39.61	 1518.20
   39.68	 1524.26
   39.74	 1501.03
   39.81	 1528.30
   39.88	 1499.01
   39.94	 1519.21
   40.01	 1493.96
   40.07	 1479.82
   40.14	 1512.14
   40.21	 1511.13
   40.27	 1525.27
   40.34	 1509.11
   40.41	 1478.81
   40.47	 1518.20
   40.54	 1503.05
   40.60	 1502.04
   40.67	 1534.36
   40.74	 1515.17
   40.80	 1555.57
   40.87	 1500.02
   40.93	 1491.94
   41.00	 1528.30
   41.07	 1510.12
   41.13	 1540.42
   41.20	 1535.37
   41.26	 1536.38
   41.33	 1539.41
   41.40	 1513.15
   41.46	 1532.34
   41.53	 1524.26
   41.60	 1517.19
   41.66	 1521.23
   41.73	 1512.14
   41.79	 1525.27
   41.86	 1510.12
   41.93	 1498.00
   41.99	 1510.12
   42.06	 1490.93
   42.12	 1537.39
   42.19	 1510.12
   42.26	 1515.17
   42.32	 1536.38
   42.39	 1521.23
   42.46	 1552.54
   42.52	 1532.34
   42.59	 1538.40
   42.65	 1524.26
   42.72	 1517.19
   42.79	 1521.23
   42.85	 1506.08
   42.92	 1517.19
   42.98	 1520.22
   43.05	 1515.17
   43.12	 1530.32
   43.18	 1505.07
   43.25	 1504.06
   43.31	 1499.01
   43.38	 1525.27
   43.45	 1524.26
   43.51	 1500.02
   43.58	 1516.18
   43.65	 1531.33
   43.71	 1500.02
   43.78	 1540.42
   43.84	 1526.28
   43.91	 1531.33
   43.98	 1536.38
   44.04	 1512.14
   44.11	 1540.42
   44.17	 1520.22
   44.24	 1556.58
   44.31	 1531.33
   44.37	 1535.37
   44.44	 1572.74
   44.51	 1525.27
   44.57	 1529.31
   44.64	 1524.26
   44.70	 1506.08
   44.77	 1532.34
   44.84	 1486.89
   44.90	 1505.07
   44.97	 1512.14
   45.03	 1493.96
   45.10	 1493.96
   45.17	 1493.96
   45.23	 1514.16
   45.30	 1526.28
   45.36	 1503.05
   45.43	 1517.19
   45.50	 1506.08
   45.56	 1521.23
   45.63	 1502.04
   45.70	 1496.99
   45.76	 1494.97
   45.83	 1503.05
   45.89	 1485.88
   45.96	 1505.07
   46.03	 1509.11
   46.09	 1528.30
   46.16	 1529.31
   46.22	 1535.37
   46.29	 1509.11
   46.36	 1547.49
   46.42	 1538.40
   46.49	 1504.06
   46.56	 1511.13
   46.62	 1494.97
   46.69	 1512.14
   46.75	 1506.08
   46.82	 1494.97
   46.89	 1504.06
   46.95	 1510.12
   47.02	 1507.09
   47.08	 1512.14
   47.15	 1541.43
   47.22	 1539.41
   47.28	 1530.32
   47.35	 1542.44
   47.42	 1522.24
   47.48	 1542.44
   47.55	 1544.46
   47.61	 1527.29
   47.68	 1550.52
   47.75	 1546.48
   47.81	 1540.42
   47.88	 1535.37
   47.94	 1531.33
   48.01	 1530.32
   48.08	 1529.31
   48.14	 1499.01
   48.21	 1518.20
   48.27	 1519.21
   48.34	 1499.01
   48.41	 1501.03
   48.47	 1517.19
   48.54	 1527.29
   48.61	 1545.47
   48.67	 1563.65
   48.74	 1573.75
   48.80	 1555.57
   48.87	 1542.44
   48.94	 1541.43
   49.00	 1526.28
   49.07	 1527.29
   49.13	 1530.32
   49.20	 1517.19
   49.27	 1521.23
   49.33	 1530.32
   49.40	 1527.29
   49.47	 1513.15
   49.53	 1543.45
   49.60	 1541.43
   49.66	 1519.21
   49.73	 1536.38
   49.80	 1536.38
   49.86	 1535.37
   49.93	 1554.56
   49.99	 1530.32
   50.06	 1519.21
   50.13	 1550.52
   50.19	 1570.72
   50.26	 1544.46
   50.32	 1540.42
   50.39	 1561.63
   50.46	 1552.54
   50.52	 1541.43
   50.59	 1539.41
   50.66	 1551.53
   50.72	 1520.22
   50.79	 1524.26
   50.85	 1551.53
   50.92	 1566.68
   50.99	 1540.42
   51.05	 1550.52
   51.12	 1542.44
   51.18	 1575.77
   51.25	 1539.41
   51.32	 1548.50
   51.38	 1556.58
   51.45	 1528.30
   51.52	 1546.48
   51.58	 1531.33
   51.65	 1523.25
   51.71	 1531.33
   51.78	 1500.02
   51.85	 1515.17
   51.91	 1529.31
   51.98	 1511.13
   52.04	 1529.31
   52.11	 1532.34
   52.18	 1554.56
   52.24	 1521.23
   52.31	 1534.36
   52.37	 1565.67
   52.44	 1541.43
   52.51	 1537.39
   52.57	 1546.48
   52.64	 1536.38
   52.71	 1540.42
   52.77	 1524.26
   52.84	 1545.47
   52.90	 1532.34
   52.97	 1538.40
   53.04	 1572.74
   53.10	 1539.41
   53.17	 1550.52
   53.23	 1526.28
   53.30	 1528.30
   53.37	 1529.31
   53.43	 1523.25
   53.50	 1553.55
   53.57	 1525.27
   53.63	 1530.32
   53.70	 1534.36
   53.76	 1541.43
   53.83	 1520.22
   53.90	 1507.09
   53.96	 1537.39
   54.03	 1562.64
   54.09	 1531.33
   54.16	 1570.72
   54.23	 1574.76
   54.29	 1539.41
   54.36	 1566.68
   54.42	 1539.41
   54.49	 1584.86
   54.56	 1551.53
   54.62	 1567.69
   54.69	 1560.62
   54.76	 1539.41
   54.82	 1545.47
   54.89	 1553.55
   54.95	 1544.46
   55.02	 1567.69
   55.09	 1528.30
   55.15	 1577.79
   55.22	 1547.49
   55.28	 1541.43
   55.35	 1544.46
   55.42	 1540.42
   55.48	 1556.58
   55.55	 1551.53
   55.62	 1549.51
   55.68	 1560.62
   55.75	 1543.45
   55.81	 1569.71
   55.88	 1552.54
   55.95	 1536.38
   56.01	 1532.34
   56.08	 1539.41
   56.14	 1554.56
   56.21	 1534.36
   56.28	 1547.49
   56.34	 1541.43
   56.41	 1537.39
   56.47	 1556.58
   56.54	 1537.39
   56.61	 1542.44
   56.67	 1558.60
   56.74	 1544.46
   56.81	 1571.73
   56.87	 1555.57
   56.94	 1559.61
   57.00	 1576.78
   57.07	 1546.48
   57.14	 1571.73
   57.20	 1535.37
   57.27	 1535.37
   57.33	 1528.30
   57.40	 1522.24
   57.47	 1546.48
   57.53	 1567.69
   57.60	 1534.36
   57.67	 1539.41
   57.73	 1517.19
   57.80	 1527.29
   57.86	 1553.55
   57.93	 1536.38
   58.00	 1537.39
   58.06	 1531.33
   58.13	 1514.16
   58.19	 1524.26
   58.26	 1525.27
   58.33	 1545.47
   58.39	 1541.43
   58.46	 1559.61
   58.52	 1544.46
   58.59	 1552.54
   58.66	 1556.58
   58.72	 1556.58
   58.79	 1574.76
   58.86	 1544.46
   58.92	 1554.56
   58.99	 1566.68
   59.05	 1530.32
   59.12	 1556.58
   59.19	 1530.32
   59.25	 1505.07
   59.32	 1507.09
   59.38	 1501.03
   59.45	 1509.11
   59.52	 1507.09
   59.58	 1505.07
   59.65	 1530.32
   59.72	 1515.17
   59.78	 1534.36
   59.85	 1537.39
   59.91	 1511.13
   59.98	 1549.51
   60.05	 1527.29
   60.11	 1564.66
   60.18	 1546.48
   60.24	 1559.61
   60.31	 1539.41
   60.38	 1541.43
   60.44	 1564.66
   60.51	 1565.67
   60.57	 1542.44
   60.64	 1534.36
   60.71	 1532.34
   60.77	 1524.26
   60.84	 1537.39
   60.91	 1538.40
   60.97	 1566.68
   61.04	 1539.41
   61.10	 1568.70
   61.17	 1551.53
   61.24	 1545.47
   61.30	 1537.39
   61.37	 1554.56
   61.43	 1551.53
   61.50	 1528.30
   61.57	 1545.47
   61.63	 1525.27
   61.70	 1511.13
   61.77	 1577.79
   61.83	 1555.57
   61.90	 1539.41
   61.96	 1530.32
   62.03	 1541.43
   62.10	 1544.46
   62.16	 1537.39
   62.23	 1551.53
   62.29	 1555.57
   62.36	 1517.19
   62.43	 1534.36
   62.49	 1530.32
   62.56	 1520.22
   62.62	 1547.49
   62.69	 1536.38
   62.76	 1567.69
   62.82	 1548.50
   62.89	 1557.59
   62.96	 1546.48
   63.02	 1576.78
   63.09	 1565.67
   63.15	 1549.51
   63.22	 1535.37
   63.29	 1560.62
   63.35	 1559.61
   63.42	 1570.72
   63.48	 1552.54
   63.55	 1539.41
   63.62	 1564.66
   63.68	 1519.21
   63.75	 1560.62
   63.82	 1531.33
   63.88	 1525.27
   63.95	 1543.45
   64.01	 1543.45
   64.08	 1540.42
   64.15	 1522.24
   64.21	 1521.23
   64.28	 1555.57
   64.34	 1536.38
   64.41	 1565.67
   64.48	 1551.53
   64.54	 1545.47
   64.61	 1537.39
   64.67	 1534.36
   64.74	 1524.26
   64.81	 1547.49
   64.87	 1527.29
   64.94	 1546.48
   65.01	 1526.28
   65.07	 1528.30
   65.14	 1557.59
   65.20	 1535.37
   65.27	 1554.56
   65.34	 1546.48
   65.40	 1544.46
   65.47	 1549.51
   65.53	 1539.41
   65.60	 1565.67
   65.67	 1559.61
   65.73	 1578.80
   65.80	 1572.74
   65.87	 1548.50
   65.93	 1576.78
   66.00	 1554.56
   66.06	 1544.46
   66.13	 1577.79
   66.20	 1570.72
   66.26	 1576.78
   66.33	 1555.57
   66.39	 1567.69
   66.46	 1564.66
   66.53	 1534.36
   66.59	 1561.63
   66.66	 1565.67
   66.72	 1559.61
   66.79	 1548.50
   66.86	 1543.45
   66.92	 1578.80
   66.99	 1566.68
   67.06	 1544.46
   67.12	 1580.82
   67.19	 1528.30
   67.25	 1564.66
   67.32	 1551.53
   67.39	 1567.69
   67.45	 1577.79
   67.52	 1544.46
   67.58	 1566.68
   67.65	 1537.39
   67.72	 1543.45
   67.78	 1535.37
   67.85	 1545.47
   67.92	 1561.63
   67.98	 1575.77
   68.05	 1546.48
   68.11	 1566.68
   68.18	 1533.35
   68.25	 1548.50
   68.31	 1551.53
   68.38	 1538.40
   68.44	 1559.61
   68.51	 1541.43
   68.58	 1558.60
   68.64	 1556.58
   68.71	 1572.74
   68.77	 1544.46
   68.84	 1550.52
   68.91	 1543.45
   68.97	 1541.43
   69.04	 1539.41
   69.11	 1579.81
   69.17	 1554.56
   69.24	 1570.72
   69.30	 1587.89
   69.37	 1549.51
   69.44	 1565.67
   69.50	 1561.63
   69.57	 1587.89
   69.63	 1553.55
   69.70	 1556.58
   69.77	 1595.97
   69.83	 1570.72
   69.90	 1557.59
   69.97	 1564.66
   70.03	 1548.50
   70.10	 1580.82
   70.16	 1547.49
   70.23	 1567.69
   70.30	 1554.56
   70.36	 1550.52
   70.43	 1546.48
   70.49	 1545.47
   70.56	 1561.63
   70.63	 1567.69
   70.69	 1530.32
   70.76	 1561.63
   70.82	 1547.49
   70.89	 1532.34
   70.96	 1529.31
   71.02	 1556.58
   71.09	 1546.48
   71.16	 1502.04
   71.22	 1519.21
   71.29	 1555.57
   71.35	 1530.32
   71.42	 1535.37
   71.49	 1529.31
   71.55	 1527.29
   71.62	 1545.47
   71.68	 1554.56
   71.75	 1544.46
   71.82	 1536.38
   71.88	 1521.23
   71.95	 1540.42
   72.02	 1544.46
   72.08	 1567.69
   72.15	 1548.50
   72.21	 1563.65
   72.28	 1539.41
   72.35	 1563.65
   72.41	 1556.58
   72.48	 1537.39
   72.54	 1534.36
   72.61	 1546.48
   72.68	 1541.43
   72.74	 1576.78
   72.81	 1602.03
   72.87	 1568.70
   72.94	 1564.66
   73.01	 1559.61
   73.07	 1557.59
   73.14	 1546.48
   73.21	 1545.47
   73.27	 1564.66
   73.34	 1536.38
   73.40	 1579.81
   73.47	 1574.76
   73.54	 1557.59
   73.60	 1582.84
   73.67	 1550.52
   73.73	 1542.44
   73.80	 1535.37
   73.87	 1555.57
   73.93	 1565.67
   74.00	 1559.61
   74.07	 1539.41
   74.13	 1523.25
   74.20	 1539.41
   74.26	 1521.23
   74.33	 1546.48
   74.40	 1550.52
   74.46	 1536.38
   74.53	 1536.38
   74.59	 1546.48
   74.66	 1563.65
   74.73	 1613.14
   74.79	 1575.77
   74.86	 1573.75
   74.92	 1576.78
   74.99	 1559.61
   75.06	 1560.62
   75.12	 1546.48
   75.19	 1574.76
   75.26	 1596.98
   75.32	 1594.96
   75.39	 1575.77
   75.45	 1558.60
   75.52	 1541.43
   75.59	 1550.52
   75.65	 1534.36
   75.72	 1529.31
   75.78	 1536.38
   75.85	 1560.62
   75.92	 1555.57
   75.98	 1554.56
   76.05	 1557.59
   76.12	 1549.51
   76.18	 1549.51
   76.25	 1559.61
   76.31	 1545.47
   76.38	 1581.83
   76.45	 1546.48
   76.51	 1558.60
   76.58	 1559.61
   76.64	 1549.51
   76.71	 1556.58
   76.78	 1575.77
   76.84	 1553.55
   76.91	 1550.52
   76.97	 1551.53
   77.04	 1560.62
   77.11	 1566.68
   77.17	 1560.62
   77.24	 1597.99
   77.31	 1565.67
   77.37	 1531.33
   77.44	 1571.73
   77.50	 1547.49
   77.57	 1557.59
   77.64	 1577.79
   77.70	 1566.68
   77.77	 1553.55
   77.83	 1562.64
   77.90	 1553.55
   77.97	 1540.42
   78.03	 1559.61
   78.10	 1550.52
   78.17	 1539.41
   78.23	 1575.77
   78.30	 1556.58
   78.36	 1558.60
   78.43	 1558.60
   78.50	 1561.63
   78.56	 1587.89
   78.63	 1539.41
   78.69	 1524.26
   78.76	 1573.75
   78.83	 1563.65
   78.89	 1549.51
   78.96	 1555.57
   79.03	 1559.61
   79.09	 1548.50
   79.16	 1548.50
   79.22	 1557.59
   79.29	 1546.48
   79.36	 1549.51
   79.42	 1566.68
   79.49	 1545.47
   79.55	 1574.76
   79.62	 1557.59
   79.69	 1544.46
   79.75	 1544.46
   79.82	 1532.34
   79.88	 1560.62
   79.95	 1537.39
   80.02	 1555.57
   80.08	 1572.74
   80.15	 1555.57
   80.22	 1564.66
   80.28	 1565.67
   80.35	 1534.36
   80.41	 1545.47
   80.48	 1544.46
   80.55	 1567.69
   80.61	 1531.33
   80.68	 1550.52
   80.74	 1562.64
   80.81	 1559.61
   80.88	 1569.71
   80.94	 1577.79
   81.01	 1557.59
   81.08	 1599.00
   81.14	 1555.57
   81.21	 1560.62
   81.27	 1549.51
   81.34	 1547.49
   81.41	 1600.01
   81.47	 1551.53
   81.54	 1563.65
   81.60	 1564.66
   81.67	 1566.68
   81.74	 1576.78
   81.80	 1555.57
   81.87	 1563.65
   81.93	 1574.76
   82.00	 1551.53
   82.07	 1594.96
   82.13	 1558.60
   82.20	 1573.75
   82.27	 1591.93
   82.33	 1561.63
   82.40	 1539.41
   82.46	 1562.64
   82.53	 1584.86
   82.60	 1563.65
   82.66	 1564.66
   82.73	 1594.96
   82.79	 1575.77
   82.86	 1582.84
   82.93	 1583.85
   82.99	 1576.78
   83.06	 1555.57
   83.13	 1574.76
   83.19	 1604.05
   83.26	 1552.54
   83.32	 1562.64
   83.39	 1562.64
   83.46	 1559.61
   83.52	 1594.96
   83.59	 1565.67
   83.65	 1570.72
   83.72	 1591.93
   83.79	 1566.68
   83.85	 1593.95
   83.92	 1606.07
   83.98	 1551.53
   84.05	 1584.86
   84.12	 1552.54
   84.18	 1581.83
   84.25	 1602.03
   84.32	 1576.78
   84.38	 1573.75
   84.45	 1574.76
   84.51	 1585.87
   84.58	 1571.73
   84.65	 1555.57
   84.71	 1603.04
   84.78	 1572.74
   84.84	 1566.68
   84.91	 1585.87
   84.98	 1558.60
   85.04	 1579.81
   85.11	 1586.88
   85.18	 1561.63
   85.24	 1559.61
   85.31	 1558.60
   85.37	 1562.64
   85.44	 1543.45
   85.51	 1564.66
   85.57	 1555.57
   85.64	 1572.74
   85.70	 1592.94
   85.77	 1557.59
   85.84	 1565.67
   85.90	 1574.76
   85.97	 1582.84
   86.03	 1586.88
   86.10	 1561.63
   86.17	 1573.75
   86.23	 1588.90
   86.30	 1557.59
   86.37	 1613.14
   86.43	 1575.77
   86.50	 1572.74
   86.56	 1569.71
   86.63	 1587.89
   86.70	 1590.92
   86.76	 1556.58
   86.83	 1582.84
   86.89	 1570.72
   86.96	 1580.82
   87.03	 1555.57
   87.09	 1550.52
   87.16	 1587.89
   87.23	 1581.83
   87.29	 1586.88
   87.36	 1585.87
   87.42	 1581.83
   87.49	 1550.52
   87.56	 1589.91
   87.62	 1561.63
   87.69	 1575.77
   87.75	 1575.77
   87.82	 1566.68
   87.89	 1561.63
   87.95	 1547.49
   88.02	 1555.57
   88.08	 1564.66
   88.15	 1554.56
   88.22	 1554.56
   88.28	 1550.52
   88.35	 1578.80
   88.42	 1581.83
   88.48	 1566.68
   88.55	 1565.67
   88.61	 1569.71
   88.68	 1570.72
   88.75	 1542.44
   88.81	 1567.69
   88.88	 1587.89
   88.94	 1551.53
   89.01	 1535.37
   89.08	 1536.38
   89.14	 1561.63
   89.21	 1561.63
   89.28	 1549.51
   89.34	 1585.87
   89.41	 1549.51
   89.47	 1542.44
   89.54	 1609.10
   89.61	 1566.68
   89.67	 1570.72
   89.74	 1586.88
   89.80	 1557.59
   89.87	 1576.78
   89.94	 1575.77
   90.00	 1579.81
   90.07	 1580.82
   90.13	 1569.71
   90.20	 1572.74
   90.27	 1576.78
   90.33	 1575.77
   90.40	 1569.71
   90.47	 1592.94
   90.53	 1572.74
   90.60	 1549.51
   90.66	 1567.69
   90.73	 1537.39
   90.80	 1603.04
   90.86	 1599.00
   90.93	 1575.77
   90.99	 1580.82
   91.06	 1563.65
   91.13	 1573.75
   91.19	 1594.96
   91.26	 1582.84
   91.33	 1577.79
   91.39	 1561.63
   91.46	 1557.59
   91.52	 1576.78
   91.59	 1567.69
   91.66	 1604.05
   91.72	 1578.80
   91.79	 1588.90
   91.85	 1597.99
   91.92	 1577.79
   91.99	 1559.61
   92.05	 1572.74
   92.12	 1588.90
   92.18	 1578.80
   92.25	 1555.57
   92.32	 1576.78
   92.38	 1580.82
   92.45	 1537.39
   92.52	 1545.47
   92.58	 1542.44
   92.65	 1563.65
   92.71	 1568.70
   92.78	 1562.64
   92.85	 1592.94
   92.91	 1557.59
   92.98	 1569.71
   93.04	 1570.72
   93.11	 1560.62
   93.18	 1549.51
   93.24	 1545.47
   93.31	 1560.62
   93.38	 1561.63
   93.44	 1524.26
   93.51	 1550.52
   93.57	 1547.49
   93.64	 1546.48
   93.71	 1557.59
   93.77	 1547.49
   93.84	 1565.67
   93.90	 1541.43
   93.97	 1571.73
   94.04	 1555.57
   94.10	 1562.64
   94.17	 1564.66
   94.23	 1549.51
   94.30	 1578.80
   94.37	 1582.84
   94.43	 1582.84
   94.50	 1557.59
   94.57	 1539.41
   94.63	 1547.49
   94.70	 1546.48
   94.76	 1544.46
   94.83	 1569.71
   94.90	 1541.43
   94.96	 1582.84
   95.03	 1561.63
   95.09	 1545.47
   95.16	 1581.83
   95.23	 1570.72
   95.29	 1558.60
   95.36	 1560.62
   95.43	 1528.30
   95.49	 1545.47
   95.56	 1546.48
   95.62	 1547.49
   95.69	 1559.61
   95.76	 1559.61
   95.82	 1550.52
   95.89	 1562.64
   95.95	 1572.74
   96.02	 1561.63
   96.09	 1567.69
   96.15	 1587.89
   96.22	 1559.61
   96.28	 1550.52
   96.35	 1572.74
   96.42	 1577.79
   96.48	 1572.74
   96.55	 1560.62
   96.62	 1568.70
   96.68	 1579.81
   96.75	 1581.83
   96.81	 1561.63
   96.88	 1556.58
   96.95	 1580.82
   97.01	 1560.62
   97.08	 1577.79
   97.14	 1593.95
   97.21	 1589.91
   97.28	 1573.75
   97.34	 1559.61
   97.41	 1554.56
   97.48	 1580.82
   97.54	 1571.73
   97.61	 1569.71
   97.67	 1567.69
   97.74	 1575.77
   97.81	 1551.53
   97.87	 1542.44
   97.94	 1586.88
   98.00	 1547.49
   98.07	 1564.66
   98.14	 1576.78
   98.20	 1570.72
   98.27	 1590.92
   98.33	 1565.67
   98.40	 1580.82
   98.47	 1574.76
   98.53	 1556.58
   98.60	 1585.87
   98.67	 1574.76
   98.73	 1564.66
   98.80	 1591.93
   98.86	 1560.62
   98.93	 1586.88
   99.00	 1587.89
   99.06	 1562.64
   99.13	 1577.79
   99.19	 1552.54
   99.26	 1560.62
   99.33	 1572.74
   99.39	 1571.73
   99.46	 1576.78
   99.53	 1551.53
   99.59	 1571.73
   99.66	 1570.72
   99.72	 1540.42
   99.79	 1541.43
   99.86	 1517.19
   99.92	 1540.42
   99.99	 1564.66
  100.05	 1547.49
  100.12	 1577.79
  100.19	 1576.78
  100.25	 1556.58
  100.32	 1544.46
  100.38	 1564.66
  100.45	 1561.63
  100.52	 1528.30
  100.58	 1536.38
  100.65	 1540.42
  100.72	 1529.31
  100.78	 1565.67
  100.85	 1536.38
  100.91	 1559.61
  100.98	 1535.37
  101.05	 1528.30
  101.11	 1548.50
  101.18	 1542.44
  101.24	 1559.61
  101.31	 1529.31
  101.38	 1563.65
  101.44	 1586.88
  101.51	 1587.89
  101.58	 1593.95
  101.64	 1572.74
  101.71	 1564.66
  101.77	 1566.68
  101.84	 1579.81
  101.91	 1564.66
  101.97	 1550.52
  102.04	 1545.47
  102.10	 1565.67
  102.17	 1556.58
  102.24	 1545.47
  102.30	 1565.67
  102.37	 1546.48
  102.43	 1547.49
  102.50	 1565.67
  102.57	 1560.62
  102.63	 1546.48
  102.70	 1551.53
  102.77	 1564.66
  102.83	 1539.41
  102.90	 1580.82
  102.96	 1559.61
  103.03	 1555.57
  103.10	 1543.45
  103.16	 1556.58
  103.23	 1546.48
  103.29	 1569.71
  103.36	 1534.36
  103.43	 1562.64
  103.49	 1552.54
  103.56	 1561.63
  103.63	 1590.92
  103.69	 1556.58
  103.76	 1569.71
  103.82	 1540.42
  103.89	 1552.54
  103.96	 1562.64
  104.02	 1536.38
  104.09	 1555.57
  104.15	 1560.62
  104.22	 1551.53
  104.29	 1540.42
  104.35	 1540.42
  104.42	 1561.63
  104.48	 1533.35
  104.55	 1552.54
  104.62	 1540.42
  104.68	 1550.52
  104.75	 1583.85
  104.82	 1575.77
  104.88	 1562.64
  104.95	 1595.97
  105.01	 1559.61
  105.08	 1564.66
  105.15	 1573.75
  105.21	 1556.58
  105.28	 1562.64
  105.34	 1546.48
  105.41	 1566.68
  105.48	 1561.63
  105.54	 1571.73
  105.61	 1581.83
  105.68	 1532.34
  105.74	 1585.87
  105.81	 1550.52
  105.87	 1565.67
  105.94	 1580.82
  106.01	 1560.62
  106.07	 1567.69
  106.14	 1535.37
  106.20	 1529.31
  106.27	 1535.37
  106.34	 1534.36
  106.40	 1551.53
  106.47	 1559.61
  106.53	 1550.52
  106.60	 1562.64
  106.67	 1550.52
  106.73	 1580.82
  106.80	 1576.78
  106.87	 1569.71
  106.93	 1555.57
  107.00	 1532.34
  107.06	 1557.59
  107.13	 1549.51
  107.20	 1565.67
  107.26	 1544.46
  107.33	 1531.33
  107.39	 1546.48
  107.46	 1530.32
  107.53	 1524.26
  107.59	 1557.59
  107.66	 1535.37
  107.73	 1557.59
  107.79	 1570.72
  107.86	 1569.71
  107.92	 1557.59
  107.99	 1525.27
  108.06	 1554.56
  108.12	 1544.46
  108.19	 1566.68
  108.25	 1581.83
  108.32	 1547.49
  108.39	 1552.54
  108.45	 1556.58
  108.52	 1583.85
  108.58	 1575.77
  108.65	 1567.69
  108.72	 1578.80
  108.78	 1570.72
  108.85	 1564.66
  108.92	 1547.49
  108.98	 1539.41
  109.05	 1541.43
  109.11	 1546.48
  109.18	 1573.75
  109.25	 1557.59
  109.31	 1547.49
  109.38	 1559.61
  109.44	 1545.47
  109.51	 1562.64
  109.58	 1567.69
  109.64	 1546.48
  109.71	 1575.77
  109.78	 1557.59
  109.84	 1562.64
  109.91	 1555.57
  109.97	 1541.43
  110.04	 1574.76
  110.11	 1566.68
  110.17	 1560.62
  110.24	 1558.60
  110.30	 1545.47
  110.37	 1531.33
  110.44	 1552.54
  110.50	 1560.62
  110.57	 1561.63
  110.64	 1552.54
  110.70	 1565.67
  110.77	 1556.58
  110.83	 1549.51
  110.90	 1573.75
  110.97	 1562.64
  111.03	 1560.62
  111.10	 1556.58
  111.16	 1549.51
  111.23	 1546.48
  111.30	 1562.64
  111.36	 1586.88
  111.43	 1547.49
  111.49	 1595.97
  111.56	 1579.81
  111.63	 1567.69
  111.69	 1547.49
  111.76	 1577.79
  111.83	 1580.82
  111.89	 1556.58
  111.96	 1573.75
  112.02	 1576.78
  112.09	 1559.61
  112.16	 1576.78
  112.22	 1559.61
  112.29	 1562.64
  112.35	 1591.93
  112.42	 1570.72
  112.49	 1570.72
  112.55	 1554.56
  112.62	 1539.41
  112.69	 1576.78
  112.75	 1557.59
  112.82	 1580.82
  112.88	 1589.91
  112.95	 1592.94
  113.02	 1570.72
  113.08	 1561.63
  113.15	 1569.71
  113.21	 1552.54
  113.28	 1565.67
  113.35	 1595.97
  113.41	 1564.66
  113.48	 1585.87
  113.54	 1566.68
  113.61	 1579.81
  113.68	 1578.80
  113.74	 1572.74
  113.81	 1556.58
  113.88	 1564.66
  113.94	 1569.71
  114.01	 1563.65
  114.07	 1554.56
  114.14	 1572.74
  114.21	 1590.92
  114.27	 1568.70
  114.34	 1562.64
  114.40	 1562.64
  114.47	 1600.01
  114.54	 1568.70
  114.60	 1559.61
  114.67	 1564.66
  114.74	 1555.57
  114.80	 1585.87
  114.87	 1588.90
  114.93	 1564.66
  115.00	 1564.66
  115.07	 1557.59
  115.13	 1602.03
  115.20	 1557.59
  115.26	 1550.52
  115.33	 1557.59
  115.40	 1538.40
  115.46	 1584.86
  115.53	 1577.79
  115.59	 1548.50
  115.66	 1561.63
  115.73	 1566.68
  115.79	 1573.75
  115.86	 1563.65
  115.93	 1581.83
  115.99	 1579.81
  116.06	 1569.71
  116.12	 1612.13
  116.19	 1568.70
  116.26	 1557.59
  116.32	 1582.84
  116.39	 1564.66
  116.45	 1568.70
  116.52	 1548.50
  116.59	 1558.60
  116.65	 1583.85
  116.72	 1561.63
  116.79	 1563.65
  116.85	 1564.66
  116.92	 1545.47
  116.98	 1566.68
  117.05	 1548.50
  117.12	 1560.62
  117.18	 1571.73
  117.25	 1564.66
  117.31	 1580.82
  117.38	 1559.61
  117.45	 1587.89
  117.51	 1566.68
  117.58	 1565.67
  117.64	 1589.91
  117.71	 1591.93
  117.78	 1587.89
  117.84	 1594.96
  117.91	 1578.80
  117.98	 1600.01
  118.04	 1576.78
  118.11	 1576.78
  118.17	 1585.87
  118.24	 1594.96
  118.31	 1574.76
  118.37	 1560.62
  118.44	 1552.54
  118.50	 1557.59
  118.57	 1557.59
  118.64	 1581.83
  118.70	 1584.86
  118.77	 1600.01
  118.84	 1586.88
  118.90	 1573.75
  118.97	 1586.88
  119.03	 1580.82
  119.10	 1617.18
  119.17	 1592.94
  119.23	 1602.03
  119.30	 1610.11
  119.36	 1552.54
  119.43	 1554.56
  119.50	 1565.67
  119.56	 1565.67
  119.63	 1576.78
  119.69	 1549.51
  119.76	 1560.62
  119.83	 1577.79
  119.89	 1581.83
  119.96	 1573.75
  120.03	 1574.76
  120.09	 1561.63
  120.16	 1555.57
  120.22	 1556.58
  120.29	 1576.78
  120.36	 1597.99
  120.42	 1569.71
  120.49	 1561.63
  120.55	 1575.77
  120.62	 1581.83
  120.69	 1562.64
  120.75	 1574.76
  120.82	 1565.67
  120.89	 1575.77
  120.95	 1567.69
  121.02	 1545.47
  121.08	 1566.68
  121.15	 1546.48
  121.22	 1537.39
  121.28	 1564.66
  121.35	 1560.62
  121.41	 1559.61
  121.48	 1547.49
  121.55	 1561.63
  121.61	 1562.64
  121.68	 1564.66
  121.74	 1567.69
  121.81	 1572.74
  121.88	 1562.64
  121.94	 1568.70
  122.01	 1582.84
  122.08	 1596.98
  122.14	 1570.72
  122.21	 1585.87
  122.27	 1575.77
  122.34	 1586.88
  122.41	 1592.94
  122.47	 1583.85
  122.54	 1571.73
  122.60	 1570.72
  122.67	 1570.72
  122.74	 1552.54
  122.80	 1549.51
  122.87	 1554.56
  122.94	 1554.56
  123.00	 1537.39
  123.07	 1571.73
  123.13	 1536.38
  123.20	 1564.66
  123.27	 1549.51
  123.33	 1534.36
  123.40	 1541.43
  123.46	 1544.46
  123.53	 1560.62
  123.60	 1562.64
  123.66	 1594.96
  123.73	 1595.97
  123.79	 1585.87
  123.86	 1600.01
  123.93	 1594.96
  123.99	 1579.81
  124.06	 1579.81
  124.13	 1553.55
  124.19	 1567.69
  124.26	 1542.44
  124.32	 1575.77
  124.39	 1580.82
  124.46	 1565.67
  124.52	 1552.54
  124.59	 1554.56
  124.65	 1559.61
  124.72	 1575.77
  124.79	 1572.74
  124.85	 1574.76
  124.92	 1599.00
  124.99	 1571.73
  125.05	 1587.89
  125.12	 1566.68
  125.18	 1592.94
  125.25	 1565.67
  125.32	 1556.58
  125.38	 1566.68
  125.45	 1569.71
  125.51	 1574.76
  125.58	 1552.54
  125.65	 1566.68
  125.71	 1586.88
  125.78	 1561.63
  125.84	 1579.81
  125.91	 1567.69
  125.98	 1571.73
  126.04	 1575.77
  126.11	 1581.83
  126.18	 1580.82
  126.24	 1588.90
  126.31	 1587.89
  126.37	 1597.99
  126.44	 1557.59
  126.51	 1555.57
  126.57	 1556.58
  126.64	 1536.38
  126.70	 1540.42
  126.77	 1549.51
  126.84	 1537.39
  126.90	 1536.38
  126.97	 1541.43
  127.04	 1575.77
  127.10	 1550.52
  127.17	 1555.57
  127.23	 1557.59
  127.30	 1552.54
  127.37	 1559.61
  127.43	 1562.64
  127.50	 1591.93
  127.56	 1572.74
  127.63	 1575.77
  127.70	 1561.63
  127.76	 1536.38
  127.83	 1568.70
  127.89	 1539.41
  127.96	 1543.45
  128.03	 1539.41
  128.09	 1534.36
  128.16	 1557.59
  128.23	 1552.54
  128.29	 1553.55
  128.36	 1573.75
  128.42	 1552.54
  128.49	 1587.89
  128.56	 1584.86
  128.62	 1560.62
  128.69	 1566.68
  128.75	 1553.55
  128.82	 1555.57
  128.89	 1541.43
  128.95	 1550.52
  129.02	 1565.67
  129.09	 1565.67
  129.15	 1569.71
  129.22	 1550.52
  129.28	 1569.71
  129.35	 1576.78
  129.42	 1563.65
  129.48	 1575.77
  129.55	 1554.56
  129.61	 1537.39
  129.68	 1540.42
  129.75	 1534.36
  129.81	 1554.56
  129.88	 1564.66
  129.94	 1562.64
  130.01	 1583.85
  130.08	 1574.76
  130.14	 1595.97
  130.21	 1563.65
  130.28	 1562.64
  130.34	 1554.56
  130.41	 1566.68
  130.47	 1567.69
  130.54	 1575.77
  130.61	 1569.71
  130.67	 1573.75
  130.74	 1602.03
  130.80	 1608.09
  130.87	 1558.60
  130.94	 1556.58
  131.00	 1563.65
  131.07	 1549.51
  131.14	 1564.66
  131.20	 1535.37
  131.27	 1548.50
  131.33	 1522.24
  131.40	 1531.33
  131.47	 1556.58
  131.53	 1574.76
  131.60	 1569.71
  131.66	 1567.69
  131.73	 1555.57
  131.80	 1565.67
  131.86	 1564.66
  131.93	 1575.77
  131.99	 1565.67
  132.06	 1560.62
  132.13	 1569.71
  132.19	 1564.66
  132.26	 1545.47
  132.33	 1542.44
  132.39	 1551.53
  132.46	 1556.58
  132.52	 1559.61
  132.59	 1569.71
  132.66	 1558.60
  132.72	 1566.68
  132.79	 1586.88
  132.85	 1572.74
  132.92	 1582.84
  132.99	 1575.77
  133.05	 1553.55
  133.12	 1549.51
  133.19	 1537.39
  133.25	 1570.72
  133.32	 1549.51
  133.38	 1540.42
  133.45	 1571.73
  133.52	 1545.47
  133.58	 1546.48
  133.65	 1554.56
  133.71	 1573.75
  133.78	 1577.79
  133.85	 1555.57
  133.91	 1574.76
  133.98	 1566.68
  134.04	 1560.62
  134.11	 1565.67
  134.18	 1544.46
  134.24	 1557.59
  134.31	 1557.59
  134.38	 1581.83
  134.44	 1559.61
  134.51	 1561.63
  134.57	 1555.57
  134.64	 1571.73
  134.71	 1563.65
  134.77	 1581.83
  134.84	 1560.62
  134.90	 1584.86
  134.97	 1570.72
  135.04	 1579.81
  135.10	 1600.01
  135.17	 1540.42
  135.24	 1582.84
  135.30	 1570.72
  135.37	 1559.61
  135.43	 1601.02
  135.50	 1561.63
  135.57	 1565.67
  135.63	 1551.53
  135.70	 1549.51
  135.76	 1574.76
  135.83	 1560.62
  135.90	 1594.96
  135.96	 1561.63
  136.03	 1572.74
  136.09	 1584.86
  136.16	 1549.51
  136.23	 1579.81
  136.29	 1561.63
  136.36	 1549.51
  136.43	 1560.62
  136.49	 1547.49
  136.56	 1587.89
  136.62	 1556.58
  136.69	 1539.41
  136.76	 1557.59
  136.82	 1532.34
  136.89	 1542.44
  136.95	 1540.42
  137.02	 1565.67
  137.09	 1550.52
  137.15	 1547.49
  137.22	 1552.54
  137.29	 1535.37
  137.35	 1554.56
  137.42	 1550.52
  137.48	 1541.43
  137.55	 1543.45
  137.62	 1545.47
  137.68	 1541.43
  137.75	 1549.51
  137.81	 1562.64
  137.88	 1579.81
  137.95	 1561.63
  138.01	 1567.69
  138.08	 1552.54
  138.14	 1555.57
  138.21	 1562.64
  138.28	 1564.66
  138.34	 1547.49
  138.41	 1556.58
  138.48	 1566.68
  138.54	 1601.02
  138.61	 1562.64
  138.67	 1582.84
  138.74	 1595.97
  138.81	 1576.78
  138.87	 1566.68
  138.94	 1545.47
  139.00	 1564.66
  139.07	 1562.64
  139.14	 1570.72
  139.20	 1562.64
  139.27	 1562.64
  139.34	 1585.87
  139.40	 1545.47
  139.47	 1558.60
  139.53	 1561.63
  139.60	 1546.48
  139.67	 1559.61
  139.73	 1550.52
  139.80	 1544.46
  139.86	 1580.82
  139.93	 1557.59
  140.00	 1566.68
  140.06	 1581.83
  140.13	 1579.81
  140.19	 1574.76
  140.26	 1554.56
  140.33	 1563.65
  140.39	 1549.51
  140.46	 1569.71
  140.53	 1576.78
  140.59	 1559.61
  140.66	 1582.84
  140.72	 1562.64
  140.79	 1568.70
  140.86	 1584.86
  140.92	 1561.63
  140.99	 1566.68
  141.05	 1567.69
  141.12	 1571.73
  141.19	 1574.76
  141.25	 1550.52
  141.32	 1543.45
  141.39	 1567.69
  141.45	 1552.54
  141.52	 1574.76
  141.58	 1566.68
  141.65	 1540.42
  141.72	 1539.41
  141.78	 1545.47
  141.85	 1574.76
  141.91	 1548.50
  141.98	 1562.64
  142.05	 1547.49
  142.11	 1566.68
  142.18	 1560.62
  142.25	 1560.62
  142.31	 1587.89
  142.38	 1577.79
  142.44	 1575.77
  142.51	 1579.81
  142.58	 1560.62
  142.64	 1566.68
  142.71	 1587.89
  142.77	 1572.74
  142.84	 1564.66
  142.91	 1548.50
  142.97	 1577.79
  143.04	 1557.59
  143.10	 1546.48
  143.17	 1570.72
  143.24	 1567.69
  143.30	 1552.54
  143.37	 1556.58
  143.44	 1572.74
  143.50	 1569.71
  143.57	 1584.86
  143.63	 1569.71
  143.70	 1574.76
  143.77	 1561.63
  143.83	 1575.77
  143.90	 1560.62
  143.96	 1581.83
  144.03	 1560.62
  144.10	 1541.43
  144.16	 1572.74
  144.23	 1567.69
  144.30	 1583.85
  144.36	 1580.82
  144.43	 1567.69
  144.49	 1584.86
  144.56	 1569.71
  144.63	 1570.72
  144.69	 1564.66
  144.76	 1559.61
  144.82	 1576.78
  144.89	 1568.70
  144.96	 1569.71
  145.02	 1569.71
  145.09	 1560.62
  145.15	 1549.51
  145.22	 1537.39
  145.29	 1566.68
  145.35	 1554.56
  145.42	 1554.56
  145.49	 1580.82
  145.55	 1556.58
  145.62	 1568.70
  145.68	 1567.69
  145.75	 1576.78
  145.82	 1579.81
  145.88	 1555.57
  145.95	 1575.77
  146.01	 1581.83
  146.08	 1585.87
  146.15	 1574.76
  146.21	 1557.59
  146.28	 1584.86
  146.35	 1577.79
  146.41	 1564.66
  146.48	 1570.72
  146.54	 1549.51
  146.61	 1569.71
  146.68	 1564.66
  146.74	 1554.56
  146.81	 1584.86
  146.87	 1545.47
  146.94	 1562.64
  147.01	 1551.53
  147.07	 1557.59
  147.14	 1557.59
  147.20	 1560.62
  147.27	 1565.67
  147.34	 1553.55
  147.40	 1577.79
  147.47	 1564.66
  147.54	 1573.75
  147.60	 1578.80
  147.67	 1565.67
  147.73	 1587.89
  147.80	 1564.66
  147.87	 1580.82
  147.93	 1600.01
  148.00	 1561.63
  148.06	 1561.63
  148.13	 1571.73
  148.20	 1572.74
  148.26	 1570.72
  148.33	 1560.62
  148.40	 1571.73
  148.46	 1550.52
  148.53	 1547.49
  148.59	 1567.69
  148.66	 1554.56
  148.73	 1555.57
  148.79	 1557.59
  148.86	 1569.71
  148.92	 1553.55
  148.99	 1570.72
  149.06	 1557.59
  149.12	 1579.81
  149.19	 1570.72
  149.25	 1567.69
  149.32	 1554.56
  149.39	 1589.91
  149.45	 1573.75
  149.52	 1564.66
  149.59	 1592.94
  149.65	 1577.79
  149.72	 1567.69
  149.78	 1570.72
  149.85	 1580.82
  149.92	 1559.61
  149.98	 1546.48
  150.05	 1551.53
  150.11	 1552.54
  150.18	 1552.54
  150.25	 1558.60
  150.31	 1557.59
  150.38	 1565.67
  150.45	 1570.72
  150.51	 1539.41
  150.58	 1579.81
  150.64	 1565.67
  150.71	 1562.64
  150.78	 1571.73
  150.84	 1557.59
  150.91	 1572.74
  150.97	 1544.46
  151.04	 1572.74
  151.11	 1565.67
  151.17	 1565.67
  151.24	 1584.86
  151.30	 1542.44
  151.37	 1553.55
  151.44	 1555.57
  151.50	 1565.67
  151.57	 1568.70
  151.64	 1569.71
  151.70	 1570.72
  151.77	 1546.48
  151.83	 1549.51
  151.90	 1569.71
  151.97	 1564.66
  152.03	 1595.97
  152.10	 1567.69
  152.16	 1564.66
  152.23	 1563.65
  152.30	 1557.59
  152.36	 1547.49
  152.43	 1546.48
  152.50	 1556.58
  152.56	 1576.78
  152.63	 1561.63
  152.69	 1586.88
  152.76	 1560.62
  152.83	 1587.89
  152.89	 1593.95
  152.96	 1576.78
  153.02	 1560.62
  153.09	 1564.66
  153.16	 1566.68
  153.22	 1572.74
  153.29	 1549.51
  153.35	 1557.59
  153.42	 1529.31
  153.49	 1553.55
  153.55	 1550.52
  153.62	 1544.46
  153.69	 1550.52
  153.75	 1539.41
  153.82	 1566.68
  153.88	 1535.37
  153.95	 1545.47
  154.02	 1557.59
  154.08	 1558.60
  154.15	 1557.59
  154.21	 1561.63
  154.28	 1564.66
  154.35	 1562.64
  154.41	 1546.48
  154.48	 1552.54
  154.55	 1549.51
  154.61	 1541.43
  154.68	 1574.76
  154.74	 1541.43
  154.81	 1542.44
  154.88	 1522.24
  154.94	 1545.47
  155.01	 1570.72
  155.07	 1559.61
  155.14	 1577.79
  155.21	 1554.56
  155.27	 1547.49
  155.34	 1521.23
  155.40	 1548.50
  155.47	 1561.63
  155.54	 1544.46
  155.60	 1536.38
  155.67	 1551.53
  155.74	 1539.41
  155.80	 1532.34
  155.87	 1539.41
  155.93	 1535.37
  156.00	 1540.42
  156.07	 1534.36
  156.13	 1542.44
  156.20	 1563.65
  156.26	 1569.71
  156.33	 1578.80
  156.40	 1562.64
  156.46	 1556.58
  156.53	 1566.68
  156.60	 1549.51
  156.66	 1566.68
  156.73	 1559.61
  156.79	 1565.67
  156.86	 1551.53
  156.93	 1564.66
  156.99	 1587.89
  157.06	 1555.57
  157.12	 1539.41
  157.19	 1535.37
  157.26	 1552.54
  157.32	 1560.62
  157.39	 1576.78
  157.45	 1575.77
  157.52	 1550.52
  157.59	 1567.69
  157.65	 1561.63
  157.72	 1550.52
  157.79	 1564.66
  157.85	 1573.75
  157.92	 1569.71
  157.98	 1572.74
  158.05	 1554.56
  158.12	 1571.73
  158.18	 1574.76
  158.25	 1570.72
  158.31	 1589.91
  158.38	 1568.70
  158.45	 1581.83
  158.51	 1557.59
  158.58	 1560.62
  158.65	 1559.61
  158.71	 1571.73
  158.78	 1552.54
  158.84	 1556.58
  158.91	 1564.66
  158.98	 1531.33
  159.04	 1554.56
  159.11	 1569.71
  159.17	 1562.64
  159.24	 1565.67
  159.31	 1552.54
  159.37	 1560.62
  159.44	 1565.67
  159.50	 1555.57
  159.57	 1553.55
  159.64	 1557.59
  159.70	 1535.37
  159.77	 1529.31
  159.84	 1556.58
  159.90	 1550.52
  159.97	 1527.29
  160.03	 1555.57
  160.10	 1569.71
  160.17	 1554.56
  160.23	 1547.49
  160.30	 1571.73
  160.36	 1556.58
  160.43	 1556.58
  160.50	 1547.49
  160.56	 1576.78
  160.63	 1485.88
  160.70	 1446.49
  160.76	 1425.28
  160.83	 1411.14
  160.89	 1393.97
  160.96	 1382.86
  161.03	 1371.75
  161.09	 1362.66
  161.16	 1350.54
  161.22	 1345.49
  161.29	 1336.40
  161.36	 1325.29
  161.42	 1323.27
  161.49	 1317.21
  161.55	 1308.12
  161.62	 1304.08
  161.69	 1300.04
  161.75	 1293.98
  161.82	 1288.93
  161.89	 1283.88
  161.95	 1278.83
  162.02	 1274.79
  162.08	 1270.75
  162.15	 1266.71
